Time,AccelerationX,AccelerationY,AccelerationZ,RawAccelerationX,RawAccelerationY,RawAccelerationZ,VelocityX,VelocityY,VelocityZ,PositionX,PositionY,PositionZ,Roll,Pitch,Yaw,MagnetometerX,MagnetometerY,MagnetometerZ,GyroX,GyroY,GyroZ,GravityX,GravityY,GravityZ,EulerX,EulerY,EulerZ
12.121634483337402,0.0,0.0,-0.34,-0.03,-0.73,9.43,0,0,0,0,0,0,94.37392287215906,90.21122634394018,-83.17155312051337,0.0,-0.03125,1.375,0.06140916921750354,0.060863753826255314,0.0,-0.03,-0.74,9.77,0.0,-0.1875,4.3125
12.141820669174194,0.0,0.0,-0.3,-0.03,-0.7000000000000001,9.44,0,0,0,0,0,0,141.5296343082386,135.25433951591026,49.89854153559159,-0.4375,-0.03125,-0.625,-0.001090830782496456,-0.06413624617374468,-0.125,-0.03,-0.74,9.77,0.0,-0.1875,4.3125
12.157147645950317,0.0,0.03,-0.34,-0.02,-0.74,9.44,0,0,0,0,0,0,162.46126449169293,157.7133961018953,66.30818843213697,-0.4375,-0.03125,-0.625,-0.25109083078249644,-0.1891362461737447,0.0625,-0.03,-0.74,9.77,0.0,-0.1875,4.3125
12.176108121871948,0.0,0.0,-0.31,-0.04,-0.71,9.48,0,0,0,0,0,0,175.57330511800552,169.03667439488783,83.94221234535851,-0.4375,-0.03125,-0.625,-0.001090830782496456,-0.001636246173744684,-0.125,-0.03,-0.74,9.77,0.0,-0.1875,4.3125
12.195792198181152,-0.01,0.02,-0.34,-0.04,-0.72,9.450000000000001,0,0,0,0,0,0,180.44682099598288,355.57045296758815,-79.13177269661664,0.0,-0.03125,0.5625,-0.001090830782496456,0.060863753826255314,0.0625,-0.03,-0.74,9.77,0.0,-0.1875,4.3125
12.21412181854248,0.0,0.02,-0.33,-0.03,-0.71,9.44,0,0,0,0,0,0,182.86321874069193,268.09020282773423,7.051857377479763,0.0,-0.03125,0.5625,0.06140916921750354,0.2483637538262553,0.0,-0.03,-0.74,9.77,0.0,-0.1875,4.3125
12.233776092529297,0.0,0.02,-0.33,-0.03,-0.72,9.44,0,0,0,0,0,0,184.0089176130465,224.1313277578073,8.197556249834264,0.0,-0.03125,0.5625,-0.06359083078249646,-0.1891362461737447,0.0,-0.03,-0.74,9.77,0.0,-0.1875,4.3125
12.25116777420044,0.0,0.0,-0.33,-0.03,-0.74,9.44,0,0,0,0,0,0,186.31588167868233,202.21439022284383,-69.38751819866205,-1.9375,0.40625,-1.3125,-0.06359083078249646,-0.06413624617374468,-0.0625,-0.03,-0.74,9.77,0.0,-0.1875,4.3125
12.270211935043335,-0.02,0.03,-0.33,-0.04,-0.74,9.42,0,0,0,0,0,0,184.93938011363213,13.107931711117317,-71.24039428804873,-1.9375,0.40625,-1.3125,0.06140916921750354,0.1858637538262553,0.0,-0.03,-0.74,9.77,0.0,-0.1875,4.3125
12.289430379867554,-0.01,0.0,-0.33,-0.02,-0.73,9.44,0,0,0,0,0,0,186.78111292897512,277.60179449396304,-68.67593832275581,-1.9375,0.40625,-1.3125,-0.06359083078249646,-0.001636246173744684,0.0625,-0.03,-0.74,9.77,0.0,-0.1875,4.3125
12.306738376617432,-0.01,0.0,-0.35000000000000003,-0.01,-0.73,9.49,0,0,0,0,0,0,187.73322933664662,49.83041211173007,-32.09936058888442,0.375,-0.40625,0.1875,-0.001090830782496456,0.060863753826255314,0.0,-0.03,-0.74,9.77,0.0,-0.1875,4.3125
12.326517820358276,0.0,0.02,-0.3,-0.01,-0.73,9.43,0,0,0,0,0,0,186.30225012333722,115.09518239980522,-33.00245619598874,0.375,-0.40625,0.1875,-0.001090830782496456,-0.001636246173744684,-0.0625,-0.03,-0.74,9.77,0.0,-0.1875,4.3125
12.346689462661743,-0.01,0.03,-0.33,-0.02,-0.72,9.450000000000001,0,0,0,0,0,0,184.80401862164518,328.4981079148536,-30.793316728049916,0.0,-0.03125,0.5625,-0.18859083078249644,-0.1891362461737447,0.0625,-0.03,-0.74,9.77,0.0,-0.1875,4.3125
12.364887237548828,-0.01,0.0,-0.31,-0.02,-0.73,9.48,0,0,0,0,0,0,186.77593218298165,75.4153354343643,39.358905192492415,0.0,-0.03125,0.5625,0.06140916921750354,0.12336375382625532,0.0,-0.03,-0.74,9.77,0.0,-0.1875,4.3125
12.385288715362549,-0.03,0.01,-0.3,-0.06,-0.72,9.47,0,0,0,0,0,0,186.65579664758127,310.5851161416495,87.39599028783996,0.0,-0.03125,0.5625,-0.25109083078249644,-0.3141362461737447,0.0,-0.03,-0.74,9.77,0.0,-0.1875,4.3125
12.403974771499634,0.0,0.0,-0.31,-0.03,-0.73,9.46,0,0,0,0,0,0,187.70182119594972,245.50378441476494,-32.55304475408391,0.375,-0.40625,1.0,0.06140916921750354,0.060863753826255314,0.0,-0.03,-0.74,9.77,0.0,-0.1875,4.3125
12.42409372329712,-0.02,0.0,-0.34,-0.05,-0.73,9.43,0,0,0,0,0,0,188.22483347013394,34.55259888303756,-27.165617067511022,0.375,-0.40625,1.0,0.06140916921750354,-0.1266362461737447,0.0,-0.03,-0.74,9.77,0.0,-0.1875,4.3125
12.444368124008179,0.0,0.0,-0.34,-0.03,-0.73,9.43,0,0,0,0,0,0,188.45508960722606,107.39377578545896,75.30742606311216,-1.5,-0.71875,0.1875,-0.001090830782496456,-0.1266362461737447,0.0,-0.03,-0.74,9.77,0.0,-0.1875,4.3125
12.461177587509155,0.0,0.0,-0.33,-0.02,-0.72,9.48,0,0,0,0,0,0,188.53896767577208,143.72061423666966,75.39130413165819,-1.5,-0.71875,0.1875,-0.06359083078249646,-0.3141362461737447,0.0625,-0.03,-0.74,9.77,0.0,-0.1875,4.3125
12.480143785476685,0.0,0.01,-0.33,-0.03,-0.72,9.46,0,0,0,0,0,0,187.77555441558093,162.040283462275,75.68270184538798,-1.5,-0.71875,0.1875,0.06140916921750354,-0.001636246173744684,-0.0625,-0.03,-0.74,9.77,0.0,-0.1875,4.3125
12.498878955841064,0.0,0.02,-0.34,-0.02,-0.71,9.450000000000001,0,0,0,0,0,0,186.57846974823462,171.23136807507768,-63.76347078279717,-1.5,0.40625,0.1875,0.06140916921750354,0.060863753826255314,-0.0625,-0.03,-0.74,9.77,0.0,-0.1875,4.3125
12.517406463623047,-0.01,0.0,-0.34,-0.05,-0.74,9.450000000000001,0,0,0,0,0,0,187.6006577462764,356.6067525404272,-64.83748830696446,-1.5,0.40625,0.1875,-0.06359083078249646,-0.06413624617374468,-0.0625,-0.03,-0.74,9.77,0.0,-0.1875,4.3125
12.537281513214111,-0.01,0.0,-0.32,-0.03,-0.73,9.450000000000001,0,0,0,0,0,0,188.14300174529728,89.3158079182768,-64.2976412183201,-1.5,0.40625,0.1875,-0.001090830782496456,-0.1266362461737447,-0.0625,-0.03,-0.74,9.77,0.0,-0.1875,4.3125
12.555867671966553,0.0,0.0,-0.34,-0.04,-0.73,9.44,0,0,0,0,0,0,188.25792374480773,134.77538030307858,56.931322987266896,-0.75,-0.71875,0.5625,-0.31359083078249644,-0.1266362461737447,-0.1875,-0.03,-0.74,9.77,0.0,-0.1875,4.3125
12.57731032371521,0.0,0.02,-0.34,-0.04,-0.73,9.450000000000001,0,0,0,0,0,0,186.78840441284802,157.59891649547947,58.541390591059354,-0.75,-0.71875,0.5625,-0.001090830782496456,0.060863753826255314,0.0,-0.03,-0.74,9.77,0.0,-0.1875,4.3125
12.597864389419556,-0.02,0.01,-0.32,-0.03,-0.74,9.49,0,0,0,0,0,0,186.78116149927126,350.76673155243924,100.07302800304095,0.0,-0.03125,1.0,-0.12609083078249644,-0.001636246173744684,0.0625,-0.03,-0.74,9.77,0.0,-0.1875,4.3125
12.616400957107544,-0.02,0.01,-0.32,-0.03,-0.73,9.44,0,0,0,0,0,0,186.84004004248288,87.47563908091915,100.13190654625257,0.0,-0.03125,1.0,-0.001090830782496456,0.2483637538262553,-0.0625,-0.03,-0.74,9.77,0.0,-0.1875,4.3125
12.636563062667847,0.0,0.03,-0.34,-0.03,-0.7000000000000001,9.43,0,0,0,0,0,0,185.27271735881504,133.91779588439977,10.248466900728516,0.0,-0.03125,1.0,0.06140916921750354,-0.001636246173744684,-0.0625,-0.03,-0.74,9.77,0.0,-0.1875,4.3125
12.65494418144226,0.0,0.01,-0.29,-0.02,-0.72,9.48,0,0,0,0,0,0,186.0540645461256,157.07637428614007,72.22503126768473,-0.75,-0.40625,0.5625,0.12390916921750354,-0.1266362461737447,0.0,-0.03,-0.74,9.77,0.0,-0.1875,4.3125
12.674960136413574,0.0,0.01,-0.33,-0.02,-0.73,9.44,0,0,0,0,0,0,186.5643528507577,168.6869134870102,72.47090106776355,-0.75,-0.40625,0.5625,0.12390916921750354,-0.06413624617374468,0.0,-0.03,-0.74,9.77,0.0,-0.1875,4.3125
12.694848537445068,0.0,0.02,-0.32,-0.02,-0.7000000000000001,9.450000000000001,0,0,0,0,0,0,185.83668211003925,174.61718308744528,58.9487906607383,-0.75,-0.71875,1.0,-0.001090830782496456,0.1858637538262553,0.0,-0.03,-0.74,9.77,0.0,-0.1875,4.3125
12.711668491363525,0.0,0.01,-0.34,0.0,-0.72,9.450000000000001,0,0,0,0,0,0,186.44992176823055,177.55106788766284,57.17246582009946,-0.75,-0.71875,1.0,0.06140916921750354,0.12336375382625532,0.125,-0.03,-0.74,9.77,0.0,-0.1875,4.3125
12.730110168457031,0.0,0.01,-0.31,-0.03,-0.73,9.42,0,0,0,0,0,0,186.55007862327705,178.8930102877716,57.47467494120349,-0.75,-0.71875,1.0,-0.18859083078249644,-0.1266362461737447,-0.125,-0.03,-0.74,9.77,0.0,-0.1875,4.3125
12.749130010604858,0.0,0.02,-0.31,-0.02,-0.73,9.47,0,0,0,0,0,0,185.70951919057194,179.62648148782597,10.009736191125455,0.0,-1.09375,1.8125,-0.12609083078249644,-0.001636246173744684,0.0,-0.03,-0.74,9.77,0.0,-0.1875,4.3125
12.766928672790527,0.0,0.0,-0.3,-0.02,-0.73,9.450000000000001,0,0,0,0,0,0,187.16618246744503,180.11821708785317,9.620706474772902,0.0,-1.09375,1.8125,-0.06359083078249646,0.2483637538262553,0.0,-0.03,-0.74,9.77,0.0,-0.1875,4.3125
12.786818027496338,-0.02,0.0,-0.31,-0.05,-0.75,9.46,0,0,0,0,0,0,187.83201410588157,2.084777881092406,16.3764239354974,0.0,-1.09375,1.8125,-0.18859083078249644,-0.001636246173744684,-0.0625,-0.03,-0.74,9.77,0.0,-0.1875,4.3125
12.805618524551392,0.0,0.01,-0.34,-0.02,-0.73,9.43,0,0,0,0,0,0,187.3225877661517,91.31611528448639,85.66799420487612,-1.5,-0.40625,0.1875,-0.18859083078249644,0.1858637538262553,-0.1875,-0.03,-0.74,9.77,0.0,-0.1875,4.3125
12.825582027435303,0.0,0.01,-0.34,-0.03,-0.73,9.42,0,0,0,0,0,0,187.1303745962868,135.90053398618338,85.47578103501124,-1.5,-0.40625,0.1875,-0.06359083078249646,0.12336375382625532,0.0625,-0.03,-0.74,9.77,0.0,-0.1875,4.3125
12.845418691635132,-0.01,0.0,-0.28,-0.04,-0.72,9.48,0,0,0,0,0,0,187.78286017030246,339.0279475814755,-3.278475258004306,0.375,-1.53125,0.1875,-0.25109083078249644,-0.2516362461737447,0.0625,-0.03,-0.74,9.77,0.0,-0.1875,4.3125
12.861816167831421,0.0,0.0,-0.32,-0.03,-0.75,9.46,0,0,0,0,0,0,188.2653529573103,259.6627001346779,-3.0409081471530612,0.375,-1.53125,0.1875,0.06140916921750354,-0.06413624617374468,-0.0625,-0.03,-0.74,9.77,0.0,-0.1875,4.3125
12.88065218925476,0.02,0.02,-0.3,-0.03,-0.72,9.46,0,0,0,0,0,0,186.60377329483686,218.01475035530177,-3.589171734935462,0.375,-1.53125,0.1875,0.06140916921750354,-0.1891362461737447,0.125,-0.03,-0.74,9.77,0.0,-0.1875,4.3125
12.8998281955719,-0.01,0.01,-0.34,-0.03,-0.71,9.46,0,0,0,0,0,0,186.77133124958414,20.060579791584445,-45.080683670174864,-1.125,0.78125,0.1875,-0.06359083078249646,0.060863753826255314,-0.0625,-0.03,-0.74,9.77,0.0,-0.1875,4.3125
12.918090105056763,0.0,0.01,-0.31,-0.05,-0.72,9.44,0,0,0,0,0,0,186.77328336395385,100.0852662397324,-44.87725437024946,-1.125,0.78125,0.1875,-0.06359083078249646,-0.2516362461737447,-0.0625,-0.03,-0.74,9.77,0.0,-0.1875,4.3125
12.938074111938477,0.0,0.01,-0.3,-0.02,-0.73,9.47,0,0,0,0,0,0,186.7747383376378,140.28510946380638,-44.839085673163396,-1.125,0.78125,0.1875,-0.001090830782496456,0.12336375382625532,0.0,-0.03,-0.74,9.77,0.0,-0.1875,4.3125
12.956576585769653,-0.03,0.0,-0.3,-0.06,-0.74,9.47,0,0,0,0,0,0,187.698792040978,343.2090776445932,74.71702296188809,-1.5,-0.71875,0.1875,-0.06359083078249646,0.060863753826255314,-0.1875,-0.03,-0.74,9.77,0.0,-0.1875,4.3125
12.976572275161743,0.0,0.0,-0.28,-0.02,-0.73,9.49,0,0,0,0,0,0,188.12956889264808,261.65951516623676,74.98190534853418,-1.5,-0.71875,0.1875,-0.12609083078249644,-0.2516362461737447,-0.0625,-0.03,-0.74,9.77,0.0,-0.1875,4.3125
12.996854543685913,-0.01,0.01,-0.3,-0.04,-0.73,9.47,0,0,0,0,0,0,187.35966058878165,41.932530656760036,-33.11626154576649,-0.75,0.78125,1.8125,-0.18859083078249644,-0.06413624617374468,-0.0625,-0.03,-0.74,9.77,0.0,-0.1875,4.3125
13.0140962600708,-0.01,0.02,-0.34,-0.02,-0.73,9.43,0,0,0,0,0,0,186.30874873137094,291.95588109852423,-31.67585704721941,-0.75,0.78125,1.8125,-0.06359083078249646,-0.06413624617374468,-0.125,-0.03,-0.74,9.77,0.0,-0.1875,4.3125
13.032549619674683,0.0,0.02,-0.31,-0.05,-0.71,9.450000000000001,0,0,0,0,0,0,185.71385424461891,236.1266668932023,-29.906932384143175,-0.75,0.78125,1.8125,0.12390916921750354,-0.06413624617374468,-0.0625,-0.03,-0.74,9.77,0.0,-0.1875,4.3125
13.051029920578003,-0.01,0.02,-0.31,-0.04,-0.73,9.44,0,0,0,0,0,0,185.3236138995524,29.25894963758296,12.553562551377723,0.0,-0.40625,0.5625,-0.06359083078249646,0.1858637538262553,0.0625,-0.03,-0.74,9.77,0.0,-0.1875,4.3125
13.06929326057434,0.0,0.0,-0.34,0.0,-0.73,9.450000000000001,0,0,0,0,0,0,186.97322982193526,104.84070116273166,9.427753829263139,0.0,-0.40625,0.5625,-0.06359083078249646,0.060863753826255314,0.0625,-0.03,-0.74,9.77,0.0,-0.1875,4.3125
13.089450359344482,-0.01,0.02,-0.33,-0.04,-0.73,9.44,0,0,0,0,0,0,186.03346686081147,323.40409071497635,12.95190827238352,0.0,-0.40625,0.5625,-0.12609083078249644,-0.1266362461737447,0.0,-0.03,-0.74,9.77,0.0,-0.1875,4.3125
13.107971429824829,0.0,0.02,-0.34,-0.04,-0.72,9.450000000000001,0,0,0,0,0,0,185.6449259708499,251.88202170142836,9.78268030989264,0.0,-0.71875,1.375,-0.06359083078249646,-0.001636246173744684,-0.0625,-0.03,-0.74,9.77,0.0,-0.1875,4.3125
13.129943132400513,0.0,0.02,-0.31,-0.03,-0.73,9.47,0,0,0,0,0,0,185.2569428643584,216.12098719465436,9.557159864911881,0.0,-0.71875,1.375,-0.12609083078249644,-0.001636246173744684,-0.0625,-0.03,-0.74,9.77,0.0,-0.1875,4.3125
13.14977502822876,-0.01,0.02,-0.32,-0.04,-0.72,9.47,0,0,0,0,0,0,185.18384734357892,19.196183520579183,-37.252540186876416,-0.4375,0.40625,0.1875,-0.001090830782496456,0.12336375382625532,0.0625,-0.03,-0.74,9.77,0.0,-0.1875,4.3125
13.167726039886475,-0.01,0.0,-0.34,-0.04,-0.73,9.43,0,0,0,0,0,0,186.90334654394854,280.6204102631779,-38.108579062798725,-0.4375,0.40625,0.1875,-0.06359083078249646,-0.001636246173744684,-0.0625,-0.03,-0.74,9.77,0.0,-0.1875,4.3125
13.18742561340332,-0.02,0.02,-0.28,-0.05,-0.72,9.49,0,0,0,0,0,0,185.7567116300673,52.5590659895952,-36.67434394861195,-0.4375,0.40625,0.1875,-0.001090830782496456,0.060863753826255314,0.0,-0.03,-0.74,9.77,0.0,-0.1875,4.3125
13.204243183135986,0.0,0.0,-0.31,-0.04,-0.74,9.46,0,0,0,0,0,0,187.2210286871927,116.36575933873777,9.675552694520348,0.0,-0.03125,1.0,-0.001090830782496456,-0.1891362461737447,-0.0625,-0.03,-0.74,9.77,0.0,-0.1875,4.3125
13.222521543502808,0.0,0.02,-0.31,-0.03,-0.73,9.450000000000001,0,0,0,0,0,0,186.1699942225298,148.36285601330906,10.47021122308351,0.0,-0.03125,1.0,0.12390916921750354,-0.001636246173744684,0.0,-0.03,-0.74,9.77,0.0,-0.1875,4.3125
13.241096258163452,0.0,0.02,-0.31,-0.03,-0.73,9.47,0,0,0,0,0,0,185.5194769901983,164.4551543505947,9.819693990752086,0.0,-0.03125,1.0,-0.12609083078249644,0.1858637538262553,-0.0625,-0.03,-0.74,9.77,0.0,-0.1875,4.3125
13.25875735282898,0.01,0.01,-0.32,-0.03,-0.71,9.44,0,0,0,0,0,0,186.17664244938675,171.51303460136603,13.555850850030964,0.0,-0.40625,-1.0,-0.06359083078249646,-0.001636246173744684,0.0,-0.03,-0.74,9.77,0.0,-0.1875,4.3125
13.278676271438599,0.0,-0.01,-0.3,0.0,-0.73,9.44,0,0,0,0,0,0,8.38557031335062,175.9364936446232,9.885518104180335,0.0,-0.40625,-1.0,-0.001090830782496456,-0.001636246173744684,0.0,-0.03,-0.74,9.77,0.0,-0.1875,12.3125
13.298994302749634,0.01,0.0,-0.3,-0.01,-0.74,9.47,0,0,0,0,0,0,98.53545802883436,177.1311469497536,-49.673739471189634,-0.4375,-0.71875,1.0,-0.001090830782496456,-0.1266362461737447,0.125,-0.03,-0.74,9.77,0.0,-0.1875,4.3125
13.317337274551392,0.0,0.0,-0.32,-0.03,-0.73,9.450000000000001,0,0,0,0,0,0,143.54790188657626,178.68304981881698,-2.668881238291732,-0.4375,-0.71875,1.0,-0.12609083078249644,-0.1266362461737447,0.0,-0.03,-0.74,9.77,0.0,-0.1875,4.3125
13.336856365203857,0.0,0.01,-0.3,-0.02,-0.73,9.47,0,0,0,0,0,0,165.19329759894902,179.49025125334867,21.166831041545237,-0.4375,-0.71875,1.0,0.06140916921750354,-0.06413624617374468,0.0,-0.03,-0.74,9.77,0.0,-0.1875,4.3125
13.354065179824829,0.0,0.01,-0.32,-0.03,-0.72,9.450000000000001,0,0,0,0,0,0,176.07561636751055,179.98760197061452,68.7040889461268,-1.125,-0.40625,-0.625,0.06140916921750354,0.12336375382625532,-0.0625,-0.03,-0.74,9.77,0.0,-0.1875,4.3125
13.372691869735718,-0.01,0.0,-0.3,-0.06,-0.74,9.450000000000001,0,0,0,0,0,0,182.34923105591434,1.0346035457456244,74.59363692166858,-1.125,-0.40625,-0.625,-0.06359083078249646,-0.1891362461737447,0.0625,-0.03,-0.74,9.77,0.0,-0.1875,4.3125
13.391954898834229,0.0,0.02,-0.32,-0.02,-0.72,9.44,0,0,0,0,0,0,183.66662121261757,90.634778116813,7.9408404723538695,-1.125,-2048.40625,-0.625,-0.12609083078249644,-0.1266362461737447,-0.0625,-0.03,-0.74,9.77,0.0,-0.1875,4.3125
13.410090208053589,-0.02,0.02,-0.35000000000000003,-0.05,-0.72,9.450000000000001,0,0,0,0,0,0,184.57464701527672,317.2237018655378,87.91230972934116,-1.9375,-0.40625,0.5625,0.06140916921750354,0.1858637538262553,-0.1875,-0.03,-0.74,9.77,0.0,-0.1875,4.3125
13.43012022972107,0.0,0.0,-0.32,-0.03,-0.72,9.43,0,0,0,0,0,0,186.59874637979743,248.76057727670909,87.21119427179755,-1.9375,-0.40625,0.5625,-0.06359083078249646,-0.06413624617374468,-0.1875,-0.03,-0.74,9.77,0.0,-0.1875,4.3125
13.450333833694458,-0.02,0.0,-0.32,-0.05,-0.74,9.450000000000001,0,0,0,0,0,0,187.57954606205777,36.3796821697934,9.10180125625655,0.0,-0.71875,-0.1875,-0.12609083078249644,0.060863753826255314,-0.0625,-0.03,-0.74,9.77,0.0,-0.1875,4.3125
13.468602657318115,0.0,0.01,-0.34,-0.03,-0.72,9.43,0,0,0,0,0,0,187.32135374423981,108.40106742883688,10.618219910515819,0.0,-0.71875,-0.1875,0.06140916921750354,0.060863753826255314,0.0625,-0.03,-0.74,9.77,0.0,-0.1875,4.3125
13.488898515701294,0.0,0.0,-0.31,-0.02,-0.74,9.46,0,0,0,0,0,0,187.97209974427898,144.34926005835862,10.426623751606854,0.0,-0.71875,-0.1875,-0.06359083078249646,-0.06413624617374468,-0.125,-0.03,-0.74,9.77,0.0,-8.1875,4.3125
13.506963729858398,0.0,0.0,-0.32,-0.02,-0.74,9.450000000000001,0,0,0,0,0,0,188.26622274429855,162.2921063731195,99.79670139885374,-1.9375,-0.03125,0.1875,-0.12609083078249644,-0.1266362461737447,0.0,-0.03,-0.74,9.77,0.0,-0.1875,4.3125
13.525699138641357,0.0,0.03,-0.3,-0.03,-0.73,9.44,0,0,0,0,0,0,185.71423767555854,171.38852953049994,100.65624761739636,-1.9375,-0.03125,0.1875,0.18640916921750356,0.12336375382625532,0.0,-0.03,-0.74,9.77,0.0,-0.1875,4.3125
13.544658660888672,0.0,0.01,-0.31,-0.03,-0.72,9.48,0,0,0,0,0,0,186.30723657694102,175.84299110919017,98.94073264829055,-1.9375,-0.03125,0.1875,0.06140916921750354,-0.06413624617374468,-0.0625,-0.03,-0.74,9.77,0.0,-0.1875,4.3125
13.561462640762329,-0.01,0.0,-0.34,-0.04,-0.74,9.44,0,0,0,0,0,0,187.4962911606296,358.8813140574834,43.561776602112985,-0.4375,-0.71875,1.375,-0.001090830782496456,-0.1266362461737447,-0.125,-0.03,-0.74,9.77,0.0,-0.1875,4.3125
13.581484317779541,0.0,0.01,-0.33,-0.04,-0.72,9.43,0,0,0,0,0,0,187.19171615800968,269.7456333726819,43.39475850907505,-0.4375,-0.71875,1.375,-0.06359083078249646,0.2483637538262553,-0.125,-0.03,-0.74,9.77,0.0,-0.1875,4.3125
13.601699829101562,-0.02,0.0,-0.33,-0.04,-0.74,9.46,0,0,0,0,0,0,187.9385309511639,46.72440765973968,58.19370491831174,-0.4375,-0.40625,0.1875,-0.001090830782496456,-0.1266362461737447,-0.0625,-0.03,-0.74,9.77,0.0,-0.1875,4.3125
13.620085716247559,-0.02,0.0,-0.33,-0.05,-0.72,9.450000000000001,0,0,0,0,0,0,188.40568834774103,295.33879480326857,58.660862314888874,-0.4375,-0.40625,0.1875,0.18640916921750356,0.12336375382625532,0.125,-0.03,-0.74,9.77,0.0,-0.1875,4.3125
13.640162944793701,-0.01,0.0,-0.3,-0.04,-0.74,9.47,0,0,0,0,0,0,188.5455170460296,58.80394996207265,58.51031271958115,-0.4375,-0.40625,0.1875,-0.001090830782496456,-0.001636246173744684,0.125,-0.03,-0.74,9.77,0.0,-0.1875,4.3125
13.658385753631592,0.0,0.01,-0.32,-0.02,-0.73,9.450000000000001,0,0,0,0,0,0,187.81422609105084,119.5507013249765,-77.9415575929237,-0.75,-0.03125,1.375,0.18640916921750356,-0.06413624617374468,0.0625,-0.03,-0.74,9.77,0.0,-0.1875,4.3125
13.678388357162476,0.0,0.03,-0.31,-0.02,-0.71,9.46,0,0,0,0,0,0,185.5172658418564,149.95532700642843,-71.5691589547918,-0.75,-0.03125,1.375,0.06140916921750354,-0.001636246173744684,-0.0625,-0.03,-0.74,9.77,0.0,-0.1875,4.3125
13.69819188117981,0.0,0.01,-1.61,-0.01,-0.74,9.47,0,0,0,0,0,0,186.89212087777634,165.2513898471544,79.82728272178014,-1.125,-0.40625,0.5625,-0.06359083078249646,0.1858637538262553,0.0,-0.03,-0.74,9.77,0.0,-0.1875,4.3125
13.71393346786499,0.01,0.01,-0.32,-0.02,-0.71,9.42,0,0,0,0,0,0,186.95671439317573,171.87990234964587,80.95968898882907,-1.125,-0.40625,0.5625,0.12390916921750354,-0.06413624617374468,0.0,-0.03,-0.74,9.77,0.0,-0.1875,4.3125
13.732910871505737,-0.01,0.03,-0.31,-0.04,-0.7000000000000001,9.450000000000001,0,0,0,0,0,0,185.121187945495,357.10193992701994,83.31232755722382,-1.125,-0.40625,0.5625,0.12390916921750354,0.12336375382625532,-0.0625,-0.03,-0.74,9.77,0.0,-0.1875,4.3125
13.752317190170288,0.0,0.01,-0.31,-0.03,-0.73,9.46,0,0,0,0,0,0,186.01071171190927,268.85594630745015,95.46967428810197,-0.75,-0.03125,-0.625,0.06140916921750354,0.2483637538262553,0.0,-0.03,-0.74,9.77,0.0,-0.1875,4.3125
13.769748210906982,-0.01,0.03,-0.34,-0.04,-0.71,9.42,0,0,0,0,0,0,184.79663736718254,45.384533533876265,93.06321707886659,-0.75,-0.03125,-0.625,-0.06359083078249646,-0.1266362461737447,0.0,-0.03,-0.74,9.77,0.0,-0.1875,4.3125
13.789287090301514,0.0,0.03,-0.33,-0.03,-0.71,9.44,0,0,0,0,0,0,184.11252710188296,112.90349311087832,92.49427711074443,-0.75,-0.03125,-0.625,-0.06359083078249646,0.060863753826255314,0.0,-0.03,-0.74,9.77,0.0,-0.1875,4.3125
13.806222677230835,-0.01,0.01,-0.32,-0.02,-0.73,9.48,0,0,0,0,0,0,185.53566750522907,327.4324918172508,-52.50256309151358,-0.75,0.40625,0.1875,0.06140916921750354,-0.1891362461737447,0.0625,-0.03,-0.74,9.77,0.0,-0.1875,4.3125
13.824521780014038,-0.01,0.01,-0.33,-0.02,-0.72,9.44,0,0,0,0,0,0,186.21180227563804,74.76367660170118,-51.858965260992974,-0.75,0.40625,0.1875,-0.06359083078249646,-0.001636246173744684,0.125,-0.03,-0.74,9.77,0.0,-0.1875,4.3125
13.84355092048645,0.0,0.0,-0.3,-0.04,-0.72,9.46,0,0,0,0,0,0,187.38607400997807,127.56181464479077,-51.716473358330674,-0.75,0.40625,0.1875,-0.12609083078249644,-0.001636246173744684,0.0625,-0.03,-0.74,9.77,0.0,-0.1875,4.3125
13.861634016036987,-0.02,0.01,-0.34,-0.03,-0.72,9.47,0,0,0,0,0,0,187.19482045094406,335.6433881015145,74.02123257850243,-0.75,-0.40625,0.5625,-0.001090830782496456,-0.001636246173744684,0.0,-0.03,-0.74,9.77,0.0,-0.1875,4.3125
13.881553649902344,0.0,0.0,-0.28,-0.02,-0.73,9.44,0,0,0,0,0,0,187.8775830976311,258.00167039469744,71.88917848059563,-0.75,-0.40625,0.5625,-0.12609083078249644,-0.001636246173744684,0.0,-0.03,-0.74,9.77,0.0,-0.1875,4.3125
13.90171766281128,-0.01,0.0,-0.3,-0.04,-0.74,9.47,0,0,0,0,0,0,188.2189644209746,40.010387757787086,5.985396129741304,0.0,0.40625,1.0,-0.12609083078249644,-0.2516362461737447,-0.125,-0.03,-0.74,9.77,0.0,-0.1875,4.3125
13.920331716537476,0.01,0.0,-0.35000000000000003,-0.01,-0.74,9.42,0,0,0,0,0,0,188.45215508264636,109.30438170202535,14.928012574813039,0.0,0.40625,1.0,-0.001090830782496456,-0.1266362461737447,-0.0625,-0.03,-0.74,9.77,0.0,-0.1875,4.3125
13.940321922302246,-0.01,0.02,-0.33,-0.04,-0.71,9.44,0,0,0,0,0,0,186.83542949116702,325.6671809846232,7.408689014626162,0.0,0.40625,1.0,-0.001090830782496456,-0.06413624617374468,0.0625,-0.03,-0.74,9.77,0.0,-0.1875,4.3125
13.95746111869812,0.03,0.05,-0.33,-0.03,-0.75,9.44,0,0,0,0,0,0,183.43874099124474,250.28925299404696,-60.98060704898684,-0.4375,-0.03125,1.0,-0.06359083078249646,-0.3141362461737447,0.1875,-0.03,-0.74,9.77,0.0,-0.1875,4.3125
13.976260423660278,-0.02,0.03,-0.32,-0.02,-0.72,9.47,0,0,0,0,0,0,183.3893156328395,37.07373342412707,-74.39096843327282,-0.4375,-0.03125,1.0,-0.001090830782496456,-0.06413624617374468,0.0,-0.03,-0.74,9.77,0.0,-0.1875,4.3125
13.995100498199463,0.0,0.0,-0.31,-0.03,-0.71,9.44,0,0,0,0,0,0,185.94358068857883,108.71684305600371,94.31248791593183,-0.4375,-0.03125,1.0,-0.18859083078249644,-0.001636246173744684,0.0625,-0.03,-0.74,9.77,0.0,-0.1875,4.3125
14.012698411941528,-0.02,0.02,-0.32,-0.03,-0.71,9.44,0,0,0,0,0,0,185.4360193325705,326.32309175582003,99.02826408426122,0.375,-0.03125,0.5625,-0.18859083078249644,-0.001636246173744684,0.125,-0.03,-0.74,9.77,0.0,-0.1875,4.3125
14.032818078994751,0.0,0.0,-0.29,-0.03,-0.74,9.450000000000001,0,0,0,0,0,0,187.06068253844433,253.4040222218502,-75.72115176350164,0.375,-0.03125,0.5625,-0.001090830782496456,0.12336375382625532,0.0625,-0.03,-0.74,9.77,0.0,-0.1875,4.3125
14.053031206130981,-0.02,0.02,-0.3,-0.05,-0.71,9.47,0,0,0,0,0,0,185.81393808540386,38.72231351084265,16.226921161196003,0.0,-0.40625,0.5625,-0.31359083078249644,-0.1266362461737447,0.0,-0.03,-0.74,9.77,0.0,-0.1875,4.3125
14.071406841278076,0.0,0.01,-0.31,-0.04,-0.73,9.46,0,0,0,0,0,0,186.2945867818637,109.4786330993615,9.672915922188878,0.0,-0.40625,0.5625,-0.06359083078249646,-0.1266362461737447,-0.0625,-0.03,-0.74,9.77,0.0,-0.1875,4.3125
14.091409683227539,0.01,0.01,-0.34,-0.01,-0.72,9.43,0,0,0,0,0,0,186.67923799309756,144.10856462362756,7.4954686626064415,0.0,-0.40625,0.5625,0.06140916921750354,0.060863753826255314,0.125,-0.03,-0.74,9.77,0.0,-0.1875,4.3125
14.109636068344116,-0.01,0.01,-0.31,-0.04,-0.72,9.46,0,0,0,0,0,0,186.75896667613574,343.34508384832606,12.872959292088836,0.0,-0.40625,0.5625,-0.001090830782496456,0.3733637538262553,-0.0625,-0.03,-0.74,9.77,0.0,-0.1875,4.3125
14.128664493560791,0.0,0.01,-0.31,-0.03,-0.73,9.44,0,0,0,0,0,0,186.79835107722965,261.9150182681032,10.176680217554804,0.0,-0.40625,0.5625,-0.001090830782496456,0.12336375382625532,0.0,-0.03,-0.74,9.77,0.0,-0.1875,4.3125
14.147173404693604,-0.01,0.01,-0.31,-0.06,-0.72,9.46,0,0,0,0,0,0,186.7560232182018,42.060810670563896,12.870015834154884,0.0,-0.40625,0.5625,-0.12609083078249644,-0.001636246173744684,0.0,-0.03,-0.74,9.77,0.0,-0.1875,4.3125
14.16409683227539,0.0,0.02,-0.34,-0.04,-0.74,9.41,0,0,0,0,0,0,186.06870414954506,111.24163167922214,-50.74520299585238,-0.75,0.40625,0.1875,0.06140916921750354,0.060863753826255314,0.0,-0.03,-0.74,9.77,0.0,-0.1875,4.3125
14.184112071990967,-0.01,0.0,-0.32,-0.05,-0.73,9.44,0,0,0,0,0,0,187.3145249469316,326.6644974876743,-51.962695033276205,-0.75,0.40625,0.1875,-0.12609083078249644,-0.06413624617374468,0.1875,-0.03,-0.74,9.77,0.0,-0.1875,4.3125
14.206101894378662,-0.02,0.04,-0.32,-0.03,-0.75,9.47,0,0,0,0,0,0,184.38179377885223,75.0678692532147,83.86074833107088,0.375,-0.03125,1.0,-0.12609083078249644,-0.4391362461737447,0.0625,-0.03,-0.74,9.77,0.0,-0.1875,4.3125
14.224766969680786,0.0,0.03,-0.33,-0.03,-0.73,9.4,0,0,0,0,0,0,183.8738553077178,127.80766097054753,89.92262498798826,0.375,-0.03125,1.0,-0.12609083078249644,0.1858637538262553,0.125,-0.03,-0.74,9.77,0.0,-0.1875,4.3125
14.244415998458862,0.0,0.01,-0.29,-0.04,-0.74,9.450000000000001,0,0,0,0,0,0,185.26088352057698,154.20880682921396,98.20925100716241,0.375,-0.03125,1.0,-0.06359083078249646,0.2483637538262553,-0.0625,-0.03,-0.74,9.77,0.0,-0.1875,4.3125
14.262239933013916,-0.01,0.03,-0.34,-0.03,-0.74,9.48,0,0,0,0,0,0,184.4217232715164,348.15471379475815,-36.97017922228309,-0.4375,0.40625,0.1875,-0.06359083078249646,0.060863753826255314,-0.125,-0.03,-0.74,9.77,0.0,-0.1875,4.3125
14.282297134399414,0.01,0.02,-0.32,-0.04,-0.72,9.450000000000001,0,0,0,0,0,0,184.8599875471579,263.36411966200745,-36.91620510093949,-0.4375,0.40625,0.1875,0.18640916921750356,-0.001636246173744684,-0.0625,-0.03,-0.74,9.77,0.0,-0.1875,4.3125
14.302709817886353,-0.01,0.0,-0.29,-0.04,-0.73,9.48,0,0,0,0,0,0,186.835166645738,42.8182531803849,12.02160102810322,0.0,-0.40625,0.5625,0.12390916921750354,-0.06413624617374468,0.0,-0.03,-0.74,9.77,0.0,-0.1875,4.3125
14.320765733718872,0.0,0.01,-0.33,-0.03,-0.73,9.44,0,0,0,0,0,0,186.8924039005639,111.62035293413263,10.21478020235594,0.0,-0.40625,0.5625,-0.001090830782496456,0.060863753826255314,0.125,-0.03,-0.74,9.77,0.0,-0.1875,4.3125
14.33959174156189,0.0,0.01,-0.29,-0.03,-0.73,9.46,0,0,0,0,0,0,186.80140781700004,145.9276528110065,10.243398829768893,0.0,-0.40625,0.5625,-0.001090830782496456,-0.1266362461737447,-0.0625,-0.03,-0.74,9.77,0.0,-0.1875,4.3125
14.35712742805481,0.0,0.01,-0.34,-0.01,-0.73,9.47,0,0,0,0,0,0,186.80728462171095,163.11255274944344,96.73914191762904,-0.4375,-0.03125,0.1875,-0.18859083078249644,-0.06413624617374468,0.0,-0.03,-0.74,9.77,0.0,-0.1875,4.3125
14.375686883926392,-0.01,0.0,-0.34,-0.04,-0.71,9.46,0,0,0,0,0,0,187.68381518301453,352.48484487761004,96.10167260746042,-0.4375,-0.03125,0.1875,-0.12609083078249644,-0.1891362461737447,0.0,-0.03,-0.74,-317.91,0.0,-0.1875,4.3125
14.395487546920776,0.0,0.01,-0.3,-0.04,-0.71,9.44,0,0,0,0,0,0,187.29250424716815,266.48489878274523,97.43292803530832,-0.4375,-0.03125,0.1875,0.12390916921750354,0.12336375382625532,-0.125,-0.03,-0.74,9.77,0.0,-0.1875,4.3125
14.41391372680664,0.0,0.02,-0.33,-0.03,-0.75,9.49,0,0,0,0,0,0,186.22356036628457,223.3599257353128,10.41219900307101,0.0,-0.40625,0.1875,-0.06359083078249646,-0.1266362461737447,0.0,-0.03,-0.74,9.77,0.0,-0.1875,4.3125
14.433856964111328,-0.01,0.0,-0.3,-0.05,-0.74,9.46,0,0,0,0,0,0,187.51695305530137,22.814515428094765,10.852391875125221,0.0,-0.40625,0.1875,0.12390916921750354,-0.001636246173744684,0.0,-0.03,-0.74,9.77,0.0,-0.1875,4.3125
14.45414400100708,0.0,0.02,-0.31,-0.02,-0.71,9.46,0,0,0,0,0,0,186.16170640658413,101.52473405798756,-38.49843883869576,0.75,-0.71875,1.0,-0.18859083078249644,-0.1266362461737447,-0.125,-0.03,-0.74,9.77,0.0,-0.1875,4.3125
14.472328662872314,0.0,0.01,-0.34,-0.03,-0.72,9.43,0,0,0,0,0,0,186.518683916503,140.81734337293398,-37.61012780281388,0.75,-0.71875,1.0,-0.12609083078249644,-0.2516362461737447,0.0625,-0.03,-0.74,9.77,0.0,-0.1875,4.3125
14.491917133331299,-0.02,0.0,-0.33,-0.05,-0.74,9.44,0,0,0,0,0,0,187.66451483041055,342.32276265986576,-33.63420020411368,0.75,-0.71875,1.0,0.12390916921750354,-0.001636246173744684,0.0625,-0.03,-0.74,9.77,0.0,-0.1875,4.3125
14.50925350189209,0.0,0.0,-0.34,-0.03,-0.71,9.450000000000001,0,0,0,0,0,0,188.20618028736436,261.37260767387306,98.27476026430341,-0.75,-0.03125,1.0,0.06140916921750354,0.060863753826255314,0.0,-0.03,-0.74,9.77,0.0,-0.1875,4.3125
14.52836298942566,0.0,0.01,-0.31,-0.04,-0.72,9.450000000000001,0,0,0,0,0,0,187.52195788284394,220.96003018087671,-79.02274260343053,-0.75,-0.03125,1.0,-0.001090830782496456,0.1858637538262553,-0.0625,-0.03,-0.74,9.77,0.0,-0.1875,4.3125
14.54665994644165,0.0,0.0,-0.31,-0.03,-0.75,9.49,0,0,0,0,0,0,188.07240181358105,200.69124143437853,15.862031561564635,-0.75,-8.03125,1.0,-0.06359083078249646,0.060863753826255314,0.0,-0.03,-0.74,9.77,0.0,-0.1875,4.3125
14.564500331878662,0.0,0.02,-0.34,-0.03,-0.74,9.450000000000001,0,0,0,0,0,0,186.7893934472347,190.46309706112945,10.927147786277459,0.0,-1.09375,-0.1875,0.18640916921750356,-0.1266362461737447,0.125,-0.03,-0.74,9.77,0.0,-0.1875,4.3125
14.584318399429321,0.02,0.02,-0.31,-0.02,-0.71,9.46,0,0,0,0,0,0,185.89549529053573,183.56965056926424,10.58164586275987,0.0,-1.09375,-0.1875,-0.001090830782496456,-0.001636246173744684,-0.125,-0.03,-0.74,9.77,0.0,-0.1875,4.3125
14.604435920715332,0.0,0.0,-0.31,-0.02,-0.73,9.46,0,0,0,0,0,0,187.29042051742692,181.7460516285723,9.744944524754402,0.0,-0.03125,1.8125,-0.001090830782496456,-0.4391362461737447,-0.0625,-0.03,-0.74,9.77,0.0,-0.1875,4.3125
14.622773170471191,0.0,0.0,-0.34,-0.02,-0.73,9.43,0,0,0,0,0,0,187.89413313087255,181.14675215822632,10.348657138199997,0.0,-0.03125,1.8125,-0.18859083078249644,0.1858637538262553,0.0,-0.03,-0.74,9.77,0.0,-0.1875,4.3125
14.642293930053711,0.0,0.04,-0.31,-0.02,-0.7000000000000001,9.46,0,0,0,0,0,0,184.55104975764917,180.72210242305334,10.681763444923291,0.0,-0.03125,1.8125,-0.12609083078249644,-0.06413624617374468,0.0625,-0.03,-0.74,9.77,0.0,-0.1875,4.3125
14.659374237060547,-0.01,0.02,-0.33,-0.04,-0.7000000000000001,9.43,0,0,0,0,0,0,184.91612682866844,1.532291345137181,62.71690530214181,-0.4375,-0.40625,1.0,0.06140916921750354,0.2483637538262553,0.0,-0.03,-0.74,9.77,0.0,-0.1875,4.3125
14.678007125854492,0.01,0.01,-0.32,-0.03,-0.7000000000000001,9.450000000000001,0,0,0,0,0,0,185.9374673686218,90.08285309863729,56.550242403468616,-0.4375,-0.40625,1.0,0.06140916921750354,0.060863753826255314,-0.0625,-0.03,-0.74,9.77,0.0,-0.1875,4.3125
14.697086572647095,-0.01,0.0,-0.32,-0.03,-0.72,9.47,0,0,0,0,0,0,187.24890655647,315.9913581973819,58.7752074057922,-0.4375,-0.40625,1.0,-0.12609083078249644,-0.2516362461737447,-0.1875,-0.03,-0.74,9.77,0.0,-0.1875,4.3125
14.715365171432495,-0.01,0.0,-0.34,-0.01,-0.72,9.450000000000001,0,0,0,0,0,0,188.12337615039405,69.11174760157927,12.920165383474881,0.0,-0.71875,1.0,0.31140916921750356,0.1858637538262553,0.0625,-0.03,-0.74,9.77,0.0,-0.1875,4.3125
14.735489130020142,0.0,0.02,-0.31,-0.03,-0.72,9.46,0,0,0,0,0,0,186.58991795413044,124.67335014472982,10.890134954683958,0.0,-0.71875,1.0,0.06140916921750354,-0.1266362461737447,-0.125,-0.03,-0.74,9.77,0.0,-0.1875,4.3125
14.761299133300781,0.0,0.03,-0.29,-0.03,-0.71,9.450000000000001,0,0,0,0,0,0,184.71581129233903,152.48540141630508,-76.22404055392396,-1.125,-0.03125,1.0,0.06140916921750354,-0.06413624617374468,0.0625,-0.03,-0.74,9.77,0.0,-0.1875,4.3125
14.78042197227478,0.0,0.01,-0.31,-0.01,-0.73,9.41,0,0,0,0,0,0,185.7767733853313,166.48517705209272,-80.79358387492756,-1.125,-0.03125,1.0,-0.001090830782496456,0.12336375382625532,-0.0625,-0.03,-0.74,9.77,0.0,-0.1875,4.3125
14.79900574684143,0.0,0.01,-0.31,-0.01,-0.6900000000000001,9.48,0,0,0,0,0,0,186.2135044318274,173.36006486998656,-80.35685282843143,-1.125,-0.03125,1.0,-0.18859083078249644,-0.1266362461737447,-0.0625,-0.03,-0.74,9.77,0.0,-0.1875,4.3125
14.81665563583374,0.02,0.03,-0.34,-0.02,-0.72,9.44,0,0,0,0,0,0,184.99502787539436,175.24577790524745,-74.78232736646187,-1.5,-0.03125,1.8125,0.12390916921750354,0.12336375382625532,-0.125,-0.03,-0.74,9.77,0.0,-0.1875,4.3125
14.836912393569946,-0.01,0.0,-0.3,-0.04,-0.72,9.47,0,0,0,0,0,0,186.90268680985625,358.7574415130621,98.20928162707744,-1.5,-0.03125,1.8125,0.12390916921750354,-0.001636246173744684,0.125,-0.03,-0.74,9.77,0.0,-0.1875,4.3125
14.856884956359863,-0.02,0.01,-0.33,-0.05,-0.73,9.44,0,0,0,0,0,0,187.02150248741685,91.38576802278644,75.44640822949773,-0.75,-0.40625,1.0,0.18640916921750356,0.1858637538262553,0.125,-0.03,-0.74,9.77,0.0,-0.1875,4.3125
14.874549627304077,-0.02,0.02,-0.32,-0.05,-0.72,9.450000000000001,0,0,0,0,0,0,186.09998023198952,317.6575542392114,77.43356049414072,-0.75,-0.40625,1.0,0.06140916921750354,-0.001636246173744684,-0.0625,-0.03,-0.74,9.77,0.0,-0.1875,4.3125
14.894400835037231,0.0,0.01,-0.31,-0.02,-0.72,9.46,0,0,0,0,0,0,186.46885785515653,249.10250346354587,73.35567417798245,-0.75,-0.40625,1.0,-0.001090830782496456,0.1858637538262553,0.0,-0.03,-0.74,9.77,0.0,-0.1875,4.3125
14.911152839660645,-0.02,0.01,-0.3,-0.04,-0.73,9.44,0,0,0,0,0,0,186.65588825946818,36.66846003161599,40.495228144421134,-0.4375,-0.71875,-0.1875,0.06140916921750354,0.060863753826255314,-0.125,-0.03,-0.74,9.77,0.0,-0.1875,4.3125
14.929644107818604,0.0,0.0,-0.34,-0.02,-0.73,9.44,0,0,0,0,0,0,187.63936700189316,108.45170635974819,41.422583877025204,-0.4375,-0.71875,-0.1875,-0.06359083078249646,-0.1266362461737447,0.125,-0.03,-0.74,9.77,0.0,-0.1875,4.3125
14.948329448699951,0.01,0.02,-0.33,-0.03,-0.73,9.450000000000001,0,0,0,0,0,0,186.61653545079042,143.53956573414393,10.711854241650116,-0.4375,-2048.71875,-0.1875,0.37390916921750356,-0.001636246173744684,-0.0625,-0.03,-0.74,9.77,0.0,-0.1875,4.3125
14.966214895248413,0.01,0.0,-0.3,-0.04,-0.72,9.48,0,0,0,0,0,0,187.58844059755427,160.96393299451398,95.61922933797965,-0.4375,-0.03125,1.0,-0.12609083078249644,-0.06413624617374468,0.0,-0.03,-0.74,9.77,0.0,-0.1875,4.3125
14.986201763153076,-0.02,0.0,-0.33,-0.02,-0.73,9.48,0,0,0,0,0,0,188.19939317093622,352.36480747065576,97.05745036731147,-0.4375,-0.03125,1.0,0.12390916921750354,-0.06413624617374468,0.0,-0.03,-0.74,9.77,0.0,-0.1875,4.3125
15.006144285202026,-0.02,0.02,-0.34,-0.05,-0.71,9.43,0,0,0,0,0,0,186.79328709018014,87.9802124467151,9.611121400783958,0.0,0.40625,0.1875,0.06140916921750354,-0.1266362461737447,-0.0625,-0.03,-0.74,9.77,0.0,-0.1875,4.3125
15.024548768997192,-0.01,0.0,-0.35000000000000003,-0.04,-0.73,9.42,0,0,0,0,0,0,187.67681641724914,314.9883710881061,9.376143618813074,0.0,0.40625,0.1875,-0.12609083078249644,-0.001636246173744684,0.0625,-0.03,-0.74,9.77,0.0,-0.1875,4.3125
15.044195413589478,-0.02,0.01,-0.3,-0.05,-0.72,9.47,0,0,0,0,0,0,187.2598675405145,69.6113938438961,9.060560233929408,0.0,0.40625,0.1875,0.06140916921750354,0.060863753826255314,-0.125,-0.03,-0.74,9.77,0.0,-0.1875,4.3125
15.061244249343872,-0.03,0.01,-0.32,-0.05,-0.72,9.48,0,0,0,0,0,0,187.11280598586382,307.6622867623513,-42.07798567717603,-0.4375,0.40625,1.8125,0.06140916921750354,-0.001636246173744684,0.0625,-0.03,-0.74,9.77,0.0,-0.1875,4.3125
15.079686880111694,0.0,0.0,-0.33,-0.06,-0.73,9.42,0,0,0,0,0,0,187.867825865091,243.94861972511583,-36.798746524242546,-0.4375,0.40625,1.8125,-0.06359083078249646,-0.1266362461737447,-0.0625,-0.03,-0.74,9.77,0.0,-0.1875,4.3125
15.098409652709961,0.0,0.0,-0.3,-0.03,-0.73,9.48,0,0,0,0,0,0,188.30783580470455,212.2167862064981,-36.358736584628986,-0.4375,0.40625,1.8125,0.06140916921750354,0.12336375382625532,-0.125,-0.03,-0.74,9.77,0.0,-0.1875,4.3125
15.116832733154297,0.03,0.04,-0.34,-0.02,-0.75,9.46,0,0,0,0,0,0,185.15453869943394,193.75307466057836,65.90186185855586,0.0,-0.03125,0.5625,-0.001090830782496456,-0.06413624617374468,-0.1875,-0.03,-0.74,9.77,0.0,-0.1875,4.3125
15.136850357055664,0.01,0.03,-0.32,0.01,-0.72,9.48,0,0,0,0,0,0,184.27457872541294,186.19671301767687,48.73813541411201,0.0,-0.03125,0.5625,0.06140916921750354,0.060863753826255314,0.0,-0.03,-0.74,9.77,0.0,-0.1875,4.3125
15.156946420669556,0.01,0.03,-0.33,-0.01,-0.71,9.44,0,0,0,0,0,0,183.88393292268304,182.38279248176778,7.938060346233641,0.0,0.40625,-0.1875,-0.001090830782496456,-0.06413624617374468,0.0,-0.03,-0.74,9.77,0.0,-0.1875,4.3125
15.1750328540802,0.02,0.05,-0.32,0.0,-0.6900000000000001,9.450000000000001,0,0,0,0,0,0,181.97781951681884,179.72958724274395,6.515821629804492,0.0,0.40625,-0.1875,0.24890916921750356,0.2483637538262553,0.0625,-0.03,-0.74,9.77,0.0,-0.1875,4.3125
15.194639444351196,0.02,0.02,-0.34,0.0,-0.72,9.42,0,0,0,0,0,0,183.71375026312145,178.3331875978651,6.0530972494495074,0.0,0.40625,-0.1875,0.12390916921750354,-0.06413624617374468,0.125,-0.03,-0.74,9.77,0.0,-0.1875,4.3125
15.211761713027954,0.0,0.01,-0.31,-0.02,-0.7000000000000001,9.47,0,0,0,0,0,0,185.3382428707225,179.34657014287274,88.33796244564874,-2.25,-0.40625,-0.1875,0.12390916921750354,-0.001636246173744684,-0.0625,-0.03,-0.74,9.77,0.0,-0.1875,4.3125
15.230363368988037,-0.01,0.04,-0.33,-0.02,-0.6900000000000001,9.44,0,0,0,0,0,0,183.55775093120042,0.7148115213514209,88.72484954394363,-2.25,-0.40625,-0.1875,-0.001090830782496456,-0.001636246173744684,-0.1875,-0.03,-0.74,9.77,0.0,-0.1875,4.3125
15.249494791030884,-0.03,0.02,-0.29,-0.04,-0.73,9.48,0,0,0,0,0,0,184.22189335075035,273.54600414630823,87.98033146209073,-2.25,-0.40625,-0.1875,0.12390916921750354,0.12336375382625532,-0.1875,-0.03,-0.74,9.77,0.0,-0.1875,4.3125
15.267097473144531,0.0,0.04,-0.34,-0.04,-0.71,9.46,0,0,0,0,0,0,183.06745114365577,226.9529784170943,-76.5898859246547,-0.4375,-0.03125,0.5625,-0.06359083078249646,-0.001636246173744684,0.0625,-0.03,-0.74,9.77,0.0,-0.1875,4.3125
15.287099361419678,0.0,0.01,-0.31,-0.03,-0.72,9.450000000000001,0,0,0,0,0,0,184.95259331098964,203.62521555248733,96.61609388313641,-0.4375,-0.03125,0.5625,-0.001090830782496456,-0.06413624617374468,0.0625,-0.03,-0.74,9.77,0.0,-0.1875,4.3125
15.309141159057617,0.0,0.0,-0.32,-0.02,-0.73,9.42,0,0,0,0,0,0,186.8814695276539,192.02383412018384,70.89306491061845,-0.75,-0.40625,1.375,0.12390916921750354,0.060863753826255314,-0.125,-0.03,-0.74,9.77,0.0,-0.1875,4.3125
15.327560663223267,0.01,-0.02,-0.33,-0.02,-0.74,9.44,0,0,0,0,0,0,9.516728558301232,185.3256296143618,65.65935902762678,-0.75,-0.40625,1.375,-0.001090830782496456,-0.001636246173744684,0.0,-0.03,-0.74,9.77,0.0,-0.1875,4.3125
15.347622871398926,-0.01,0.0,-0.32,-0.04,-0.74,9.450000000000001,0,0,0,0,0,0,99.10103715130967,3.737746455244106,-15.582544411183477,-0.75,-0.40625,1.375,-0.001090830782496456,-0.001636246173744684,0.0625,-0.03,-0.74,9.77,0.0,-0.1875,4.3125
15.365182638168335,-0.01,0.0,-0.3,-0.04,-0.75,9.47,0,0,0,0,0,0,143.8306914478139,272.97217578806044,53.999423514725436,-0.75,-0.03125,1.0,-0.12609083078249644,-0.06413624617374468,0.0625,-0.03,-0.74,9.77,0.0,-0.1875,4.3125
15.384178876876831,-0.01,0.0,-0.34,-0.03,-0.75,9.46,0,0,0,0,0,0,166.25801859606602,47.383406396918545,76.41554414897104,-0.75,-0.03125,1.0,-0.001090830782496456,-0.2516362461737447,-0.125,-0.03,-0.74,9.77,0.0,-0.1875,4.3125
15.4030442237854,-0.02,0.0,-0.29,-0.03,-0.73,9.47,0,0,0,0,0,0,177.37793217019208,295.78177265691824,87.6420445054886,-0.75,-0.03125,1.0,-0.18859083078249644,-0.1266362461737447,0.0,-0.03,-0.74,9.77,0.0,-0.1875,4.3125
15.419564008712769,-0.02,0.02,-0.34,-0.05,-0.73,9.48,0,0,0,0,0,0,181.35130658980808,59.75119503984634,54.36428024805096,-0.75,-0.71875,0.5625,-0.001090830782496456,-0.001636246173744684,0.0,-0.03,-0.74,9.77,0.0,-0.1875,4.3125
15.43924355506897,-0.01,0.03,-0.29,-0.04,-0.7000000000000001,9.44,0,0,0,0,0,0,182.09824734731603,301.1003033087277,57.07448638329814,-0.75,-0.71875,0.5625,0.06140916921750354,0.12336375382625532,0.0625,-0.03,-0.74,9.77,0.0,-0.1875,4.3125
15.459570407867432,0.0,0.04,-0.3,-0.03,-0.71,9.46,0,0,0,0,0,0,181.62572486152138,240.63637799830403,-76.46160341808387,-0.4375,-0.03125,0.5625,0.06140916921750354,-0.1891362461737447,0.0,-0.03,-0.74,9.77,0.0,-0.1875,4.3125
15.477905988693237,-0.02,0.04,-0.3,-0.03,-0.6900000000000001,9.44,0,0,0,0,0,0,181.36652623957474,32.41977276950625,-77.177516377063,-0.4375,-0.03125,0.5625,-0.001090830782496456,0.060863753826255314,0.0625,-0.03,-0.74,9.77,0.0,-0.1875,4.3125
15.498038291931152,0.0,0.03,-0.34,-0.02,-0.71,9.43,0,0,0,0,0,0,182.504710457361,106.38986272869332,-80.12287007185616,-0.4375,-0.03125,0.5625,-0.001090830782496456,-0.001636246173744684,0.0,-0.03,-0.74,9.77,0.0,-0.1875,4.3125
15.516873598098755,0.01,0.01,-0.33,-0.01,-0.72,9.44,0,0,0,0,0,0,184.79007375170397,142.53870335915127,90.61697432203206,-0.4375,-0.03125,-1.0,0.12390916921750354,0.060863753826255314,0.0,-0.03,-0.74,9.77,0.0,-0.1875,4.3125
15.536879062652588,0.04,0.02,-0.33,0.0,-0.72,9.44,0,0,0,0,0,0,185.01616514966582,157.906232385122,89.83896451033146,-0.4375,-0.03125,-1.0,-0.001090830782496456,-0.1891362461737447,0.0625,-0.03,-0.74,9.77,0.0,-0.1875,4.3125
15.557301998138428,0.01,0.0,-0.33,0.0,-0.73,9.450000000000001,0,0,0,0,0,0,186.72575544699197,168.171490242037,-18.716521324162017,0.375,-0.71875,0.1875,-0.25109083078249644,-0.1891362461737447,0.0625,-0.03,-0.74,9.77,0.0,-0.1875,4.3125
15.573683500289917,0.01,0.01,-0.33,-0.01,-0.74,9.450000000000001,0,0,0,0,0,0,186.80684624651946,173.3045171158231,-18.00813772307174,0.375,-0.71875,0.1875,-0.06359083078249646,-0.1891362461737447,0.125,-0.03,-0.74,9.77,0.0,-0.1875,4.3125
15.592211484909058,0.0,0.0,-0.32,-0.02,-0.74,9.42,0,0,0,0,0,0,187.68359599541878,176.83223490185173,-17.414691573971112,0.375,-0.71875,0.1875,-0.12609083078249644,-0.001636246173744684,0.0625,-0.03,-0.74,9.77,0.0,-0.1875,4.3125
15.611292123794556,-0.03,0.0,-0.32,-0.02,-0.75,9.49,0,0,0,0,0,0,188.12197086986845,1.3365063162936357,8.109699254409833,0.0,0.40625,0.1875,-0.12609083078249644,0.12336375382625532,0.0,-0.03,-0.74,9.77,0.0,-0.1875,4.3125
15.6295006275177,-0.02,0.0,-0.34,-0.03,-0.73,9.450000000000001,0,0,0,0,0,0,188.34115830709328,272.50020983380193,9.243205119854593,0.0,0.40625,0.1875,-0.12609083078249644,-0.06413624617374468,0.0,-0.03,-0.74,9.77,0.0,-0.1875,4.3125
15.649603366851807,-0.01,0.02,-0.31,-0.04,-0.72,9.46,0,0,0,0,0,0,186.63726593078957,47.289471107882775,10.225759625959057,0.0,0.40625,0.1875,-0.06359083078249646,-0.1266362461737447,0.125,-0.03,-0.74,9.77,0.0,-0.1875,4.3125
15.667888402938843,-0.02,0.01,-0.32,-0.05,-0.72,9.450000000000001,0,0,0,0,0,0,186.64309225824204,295.58075885864093,-51.6516622128144,-0.75,0.40625,1.0,-0.25109083078249644,-0.06413624617374468,0.0625,-0.03,-0.74,9.77,0.0,-0.1875,4.3125
15.68807315826416,-0.03,0.03,-0.32,-0.06,-0.71,9.450000000000001,0,0,0,0,0,0,184.87293009676364,60.6366446777771,-49.24654388888504,-0.75,0.40625,1.0,-0.25109083078249644,-0.001636246173744684,-0.1875,-0.03,-0.74,9.77,0.0,-0.1875,4.3125
15.708269834518433,-0.01,0.02,-0.32,-0.04,-0.71,9.450000000000001,0,0,0,0,0,0,184.92934095978154,301.39151226214057,56.176335402381795,-0.75,-0.71875,0.1875,-0.12609083078249644,-0.001636246173744684,-0.0625,-0.03,-0.74,9.77,0.0,-0.1875,4.3125
15.72565484046936,0.0,0.04,-0.34,-0.02,-0.71,9.43,0,0,0,0,0,0,183.35867494817137,240.81323247501047,56.47475350398341,-0.75,-0.71875,0.1875,-0.18859083078249644,-0.1266362461737447,0.0,-0.03,-0.74,9.77,0.0,-0.1875,4.3125
15.744706630706787,0.0,0.0,-0.3,-0.04,-0.71,9.44,0,0,0,0,0,0,185.95951034624477,210.61784258144542,54.63290958870394,-0.75,-0.71875,0.1875,-0.12609083078249644,0.060863753826255314,0.0625,-0.03,-0.74,9.77,0.0,-0.1875,4.3125
15.762930631637573,0.01,0.02,-0.32,-0.03,-0.71,9.47,0,0,0,0,0,0,185.5976310845221,194.62693405535106,9.252376944477277,0.0,-0.71875,0.1875,0.12390916921750354,0.060863753826255314,0.0625,-0.03,-0.74,9.77,0.0,-0.1875,4.3125
15.780802011489868,0.0,0.0,-0.31,-0.01,-0.72,9.46,0,0,0,0,0,0,187.1727384144201,187.4309433716157,9.627262421747986,0.0,-0.71875,0.1875,0.06140916921750354,-0.1266362461737447,-0.0625,-0.03,-0.74,9.77,0.0,-0.1875,4.3125
15.800960540771484,0.0,0.0,-0.3,-0.03,-0.75,9.48,0,0,0,0,0,0,187.92904207936914,183.83294802974802,10.383566086697016,0.0,-0.71875,0.1875,-0.001090830782496456,-0.1266362461737447,0.0,-0.03,-0.74,9.77,0.0,-0.1875,4.3125
15.81963562965393,0.0,-0.02,-0.32,-0.03,-0.74,9.48,0,0,0,0,0,0,10.189111099342306,182.1277003588142,-8.293917665885289,0.375,-1.09375,-0.1875,0.18640916921750356,0.060863753826255314,0.125,-0.03,-0.74,9.77,0.0,-0.1875,4.3125
15.840814113616943,-0.02,0.0,-0.33,-0.04,-0.73,9.450000000000001,0,0,0,0,0,0,99.5622284218302,3.2591911528058395,-97.40588670083316,0.375,-1.09375,-0.1875,0.24890916921750356,0.5608637538262553,-0.0625,-0.03,-0.74,9.77,0.0,-0.1875,4.3125
15.861174821853638,0.0,-0.01,-0.3,-0.03,-0.76,9.47,0,0,0,0,0,0,325.20336329957235,91.7470719203431,54.239298971699526,-1.5,-0.03125,1.0,0.24890916921750356,-0.1266362461737447,0.0,-0.03,-0.74,9.77,0.0,-0.1875,4.3125
15.878828048706055,0.0,0.0,-0.34,-0.02,-0.73,9.43,0,0,0,0,0,0,257.00685452194523,135.99101230411173,168.26788910529106,-1.5,-0.03125,1.0,0.12390916921750354,-0.1266362461737447,0.0625,-0.03,-0.74,9.77,0.0,-0.1875,4.3125
15.898435354232788,0.0,0.01,-0.32,-0.03,-0.72,9.450000000000001,0,0,0,0,0,0,221.88864482900863,158.20673249599605,-44.76187585954045,-1.5,-0.03125,1.0,-0.12609083078249644,0.060863753826255314,0.1875,-0.03,-0.74,9.77,0.0,-0.1875,4.3125
15.915197134017944,0.01,0.04,-0.3,-0.04,-0.71,9.450000000000001,0,0,0,0,0,0,201.52300688592572,168.30588389731756,58.61821369862142,-0.4375,-0.71875,-0.1875,0.06140916921750354,-0.06413624617374468,0.0625,-0.03,-0.74,9.77,0.0,-0.1875,4.3125
15.933117866516113,0.0,0.04,-0.32,-0.01,-0.73,9.43,0,0,0,0,0,0,191.63541814067105,174.42666829259895,48.365349664446995,-0.4375,-0.71875,-0.1875,0.18640916921750356,0.1858637538262553,0.0625,-0.03,-0.74,9.77,0.0,-0.1875,4.3125
15.951970338821411,0.01,0.01,-0.3,-0.03,-0.6900000000000001,9.49,0,0,0,0,0,0,189.23758521279314,176.50176376053818,44.06952690607679,-0.4375,-0.71875,-0.1875,0.06140916921750354,0.12336375382625532,0.0625,-0.03,-0.74,9.77,0.0,-0.1875,4.3125
15.970096588134766,0.02,0.05,-0.33,0.0,-0.72,9.42,0,0,0,0,0,0,184.6301631030126,176.74751524092306,4.75670844682395,0.0,-0.40625,0.5625,-0.06359083078249646,0.060863753826255314,0.125,-0.03,-0.74,9.77,0.0,-0.1875,4.3125
15.990029573440552,0.01,0.03,-0.31,-0.03,-0.71,9.47,0,0,0,0,0,0,183.95791230041343,177.69672155614492,6.032992069498448,0.0,-0.40625,0.5625,0.12390916921750354,0.12336375382625532,0.1875,-0.03,-0.74,9.77,0.0,-0.1875,4.3125
16.010301113128662,0.0,0.02,-0.32,-0.02,-0.71,9.450000000000001,0,0,0,0,0,0,184.50221183486713,179.05958712201266,72.82372301007709,-1.5,-0.71875,-0.1875,-0.06359083078249646,0.060863753826255314,0.0625,-0.03,-0.74,9.77,0.0,-0.1875,4.3125
16.028364419937134,0.0,0.03,-0.33,-0.03,-0.71,9.44,0,0,0,0,0,0,183.99656433572522,179.6160199049465,73.01206298387271,-1.5,-0.71875,-0.1875,-0.001090830782496456,-0.1891362461737447,0.0,-0.03,-0.74,9.77,0.0,-0.1875,4.3125
16.04793095588684,-0.02,0.0,-0.3,-0.05,-0.74,9.47,0,0,0,0,0,0,186.3097050400217,1.957523713558614,72.92490711810811,-1.5,-0.71875,-0.1875,-0.06359083078249646,0.12336375382625532,0.0625,-0.03,-0.74,9.77,0.0,-0.1875,4.3125
16.065175771713257,-0.02,-0.02,-0.32,-0.06,-0.74,9.49,0,0,0,0,0,0,9.28221927604789,272.9434320845975,36.39711797291645,-0.75,-1.53125,0.5625,-0.001090830782496456,-0.001636246173744684,-0.125,-0.03,-0.74,9.77,0.0,-0.1875,4.3125
16.083131074905396,-0.01,0.01,-0.34,-0.04,-0.71,9.42,0,0,0,0,0,0,98.26680424018961,47.5874206562323,-51.55489866033008,-0.75,-1.53125,0.5625,0.24890916921750356,0.1858637538262553,0.0,-0.03,-0.74,9.77,0.0,-0.1875,4.3125
16.102635622024536,-0.02,0.01,-0.29,-0.04,-0.74,9.47,0,0,0,0,0,0,142.49094611288064,295.97636176178617,-6.452559359751319,-0.75,-1.53125,0.5625,-0.001090830782496456,0.060863753826255314,0.0625,-0.03,-0.74,9.77,0.0,-0.1875,4.3125
16.121060848236084,0.0,-0.01,-0.31,-0.06,-0.74,9.49,0,0,0,0,0,0,346.4494510615967,238.10565722483327,56.695162014331146,-1.125,-0.40625,1.0,-0.12609083078249644,-0.1266362461737447,0.0625,-0.03,-0.74,9.77,0.0,-0.1875,4.3125
16.14094829559326,0.0,0.0,-0.32,-0.02,-0.72,9.450000000000001,0,0,0,0,0,0,267.5986484029574,209.2015549563568,160.1979580409642,-1.125,-0.40625,1.0,0.06140916921750354,-0.06413624617374468,0.125,-0.03,-0.74,9.77,0.0,-0.1875,4.3125
16.16101336479187,0.02,0.01,-0.3,0.0,-0.73,9.47,0,0,0,0,0,0,227.2520335333686,192.87477186621572,97.28652617641958,-0.4375,-0.40625,0.1875,0.12390916921750354,-0.001636246173744684,0.0625,-0.03,-0.74,9.77,0.0,-0.1875,4.3125
16.178849697113037,0.01,0.03,-0.34,-0.01,-0.7000000000000001,9.43,0,0,0,0,0,0,205.4797982779122,185.77827824083704,78.43137791512262,-0.4375,-0.40625,0.1875,0.06140916921750354,-0.001636246173744684,0.125,-0.03,-0.74,9.77,0.0,-0.1875,4.3125
16.197904348373413,0.01,0.04,-0.31,-0.01,-0.7000000000000001,9.46,0,0,0,0,0,0,193.40827263360438,182.09040078054645,68.12755314604212,-0.4375,-0.40625,0.1875,-0.001090830782496456,-0.1266362461737447,0.0625,-0.03,-0.74,9.77,0.0,-0.1875,4.3125
16.215296030044556,0.02,0.02,-0.32,0.0,-0.68,9.44,0,0,0,0,0,0,189.29336530508328,179.44048285033543,72.99479383421581,0.75,0.40625,1.375,0.06140916921750354,-0.001636246173744684,0.125,-0.03,-0.74,9.77,0.0,-0.1875,4.3125
16.23368263244629,0.02,0.03,-0.32,0.0,-0.7000000000000001,9.43,0,0,0,0,0,0,186.41037778975874,178.1510871859445,68.88937552235447,0.75,0.40625,1.375,0.18640916921750356,0.060863753826255314,0.0625,-0.03,-0.74,9.77,0.0,-0.1875,4.3125
16.25331139564514,0.0,0.03,-0.29,-0.01,-0.7000000000000001,9.48,0,0,0,0,0,0,184.56354121015318,179.25551993691244,63.937500715519064,0.75,0.40625,1.375,-0.06359083078249646,-0.001636246173744684,0.0,-0.03,-0.74,9.77,0.0,-0.1875,4.3125
16.271023750305176,0.0,0.01,-0.35000000000000003,0.0,-0.73,9.450000000000001,0,0,0,0,0,0,185.8686549564273,179.7139863123964,9.14146748456352,0.0,-0.40625,0.5625,0.12390916921750354,-0.1891362461737447,0.0,-0.03,-0.74,9.77,0.0,-0.1875,4.3125
16.291266441345215,0.0,0.0,-0.3,-0.05,-0.71,9.47,0,0,0,0,0,0,187.3082503503727,179.97446950013838,9.762774357700579,0.0,-0.40625,0.5625,0.06140916921750354,-0.1266362461737447,0.0,-0.03,-0.74,9.77,0.0,-0.1875,4.3125
16.3114595413208,-0.01,0.0,-0.31,-0.04,-0.74,9.46,0,0,0,0,0,0,187.9342980473454,1.0285162270066754,68.79835028197968,-1.125,-0.71875,1.375,-0.12609083078249644,-0.1266362461737447,-0.125,-0.03,-0.74,9.77,0.0,-0.1875,4.3125
16.329577684402466,-0.02,0.0,-0.32,-0.05,-0.73,9.450000000000001,0,0,0,0,0,0,188.21607189583176,272.3574016449422,69.93037012347756,-1.125,-0.71875,1.375,-0.18859083078249644,-0.2516362461737447,-0.0625,-0.03,-0.74,9.77,0.0,-0.1875,4.3125
16.34912943840027,0.0,0.0,-0.3,-0.03,-0.75,9.47,0,0,0,0,0,0,188.51320882007496,226.35867716641127,68.39367569283033,-1.125,-0.71875,1.375,0.12390916921750354,-0.001636246173744684,0.0,-0.03,-0.74,9.77,0.0,-0.1875,4.3125
16.366490125656128,0.0,0.0,-0.32,-0.04,-0.75,9.450000000000001,0,0,0,0,0,0,188.63052728219657,203.45306492714582,99.8915618655424,-1.5,-0.03125,1.0,0.06140916921750354,0.1858637538262553,-0.0625,-0.03,-0.74,9.77,0.0,-0.1875,4.3125
16.38694429397583,-0.02,0.0,-0.31,-0.03,-0.74,9.44,0,0,0,0,0,0,188.68918651325737,13.689701800738732,99.99704544552739,-1.5,-0.03125,1.0,0.06140916921750354,-0.1266362461737447,-0.125,-0.03,-0.74,9.77,0.0,-0.1875,4.3125
16.40622568130493,-0.03,0.0,-0.31,-0.05,-0.75,9.44,0,0,0,0,0,0,188.68726612878777,279.6635973201376,100.01537788414018,-1.5,-0.03125,1.0,-0.001090830782496456,-0.2516362461737447,0.0,-0.03,-0.74,9.77,0.0,-0.1875,4.3125
16.423380136489868,0.0,0.01,-0.34,-0.04,-0.72,9.450000000000001,0,0,0,0,0,0,187.8127137776048,229.949275004009,57.56123940842585,-0.75,-0.71875,0.1875,-0.06359083078249646,-0.1266362461737447,-0.0625,-0.03,-0.74,9.77,0.0,-0.1875,4.3125
16.443570613861084,-0.01,0.02,-0.27,-0.04,-0.74,9.46,0,0,0,0,0,0,186.10102840040176,26.306017002126367,57.84350809747022,-0.75,-0.71875,0.1875,-0.06359083078249646,0.1858637538262553,-0.125,-0.03,-0.74,9.77,0.0,-0.1875,4.3125
16.4635808467865,0.0,0.0,-0.3,-0.02,-0.74,9.47,0,0,0,0,0,0,187.39318707235995,103.20798484500337,41.17640394749199,-0.4375,-0.71875,-0.1875,-0.001090830782496456,-0.2516362461737447,-0.0625,-0.03,-0.74,9.77,0.0,-0.1875,4.3125
16.481269359588623,0.02,0.02,-0.31,0.0,-0.71,9.46,0,0,0,0,0,0,186.25989210309837,139.9420944612012,41.98359379781823,-0.4375,-0.71875,-0.1875,0.12390916921750354,-0.001636246173744684,0.0,-0.03,-0.74,9.77,0.0,-0.1875,4.3125
16.501085996627808,0.02,0.03,-0.32,0.0,-0.7000000000000001,9.450000000000001,0,0,0,0,0,0,184.8623911887663,158.4018929913774,41.196218717251355,-0.4375,-0.71875,-0.1875,0.12390916921750354,0.060863753826255314,0.0,-0.03,-0.74,9.77,0.0,-0.1875,4.3125
16.517990112304688,0.0,0.03,-0.31,0.0,-0.74,9.48,0,0,0,0,0,0,183.94759839071415,169.34967283962888,-77.81461298285562,-0.4375,-0.03125,0.5625,-0.12609083078249644,-0.06413624617374468,0.0625,-0.03,-0.74,9.77,0.0,-0.1875,4.3125
16.53656244277954,0.02,0.0,-0.32,-0.02,-0.71,9.41,0,0,0,0,0,0,186.34772206751614,173.12914557625595,94.35237381234279,-0.4375,-0.03125,0.5625,0.06140916921750354,0.12336375382625532,-0.0625,-0.03,-0.74,9.77,0.0,-0.1875,4.3125
16.555110454559326,0.0,0.0,-0.33,-0.01,-0.73,9.44,0,0,0,0,0,0,187.54778390591713,176.65079913206816,95.91669113327018,-0.4375,-0.03125,0.5625,0.06140916921750354,-0.1891362461737447,0.0,-0.03,-0.74,9.77,0.0,-0.1875,4.3125
16.57289695739746,-0.01,0.02,-0.34,-0.02,-0.73,9.450000000000001,0,0,0,0,0,0,186.49656038993868,359.3775153361783,56.710640124969444,-0.4375,-0.40625,-0.1875,0.12390916921750354,0.060863753826255314,0.1875,-0.03,-0.74,9.77,0.0,-0.1875,4.3125
16.592895030975342,-0.03,0.01,-0.31,-0.03,-0.72,9.43,0,0,0,0,0,0,186.67144065887163,92.53732613528128,55.502238306727264,-0.4375,-0.40625,-0.1875,-0.001090830782496456,-0.1891362461737447,0.0,-0.03,-0.74,9.77,0.0,-0.1875,4.3125
16.613022089004517,-0.03,0.02,-0.26,-0.06,-0.72,9.5,0,0,0,0,0,0,185.4622302651938,319.63625281814353,100.08444073302215,-2048.4375,-0.71875,1.375,-0.06359083078249646,-0.1891362461737447,0.0,-0.03,-0.74,9.77,0.0,-0.1875,12.3125
16.63140344619751,0.0,0.0,-0.34,-0.02,-0.74,9.43,0,0,0,0,0,0,187.13628800475595,250.06060275301195,40.919504879888024,-0.4375,-0.71875,1.375,0.12390916921750354,0.12336375382625532,-0.0625,-0.03,-0.74,9.77,0.0,-0.1875,4.3125
16.6514413356781,0.01,0.0,-0.29,-0.01,-0.74,9.48,0,0,0,0,0,0,187.87956687453703,214.16031071500515,38.80977197731963,-0.4375,-0.71875,1.375,-0.06359083078249646,-0.1266362461737447,-0.125,-0.03,-0.74,9.77,0.0,-8.1875,4.3125
16.668757438659668,-0.01,0.01,-0.32,-0.04,-0.71,9.46,0,0,0,0,0,0,187.35668739155608,18.279650619314253,23.75196317466515,0.0,-0.03125,0.1875,-0.06359083078249646,0.2483637538262553,0.0625,-0.03,-0.74,9.77,0.0,-0.1875,4.3125
16.687631607055664,0.02,0.0,-0.32,-0.02,-0.73,9.41,0,0,0,0,0,0,188.11476656793712,97.59413446609864,-9.950062321778631,0.0,-0.03125,0.1875,0.18640916921750356,0.12336375382625532,0.0625,-0.03,-0.74,9.77,0.0,-0.1875,4.3125
16.70658278465271,0.0,0.0,-0.31,-0.01,-0.71,9.450000000000001,0,0,0,0,0,0,188.40005615612762,138.8832935769895,10.854580163455438,0.0,-0.03125,0.1875,-0.001090830782496456,-0.1891362461737447,-0.0625,-0.03,-0.74,9.77,0.0,-0.1875,4.3125
16.724281787872314,-0.01,0.01,-0.31,-0.05,-0.71,9.48,0,0,0,0,0,0,187.58812575765077,340.45119832500706,9.46250412081369,0.0,-0.71875,-0.625,-0.06359083078249646,-0.1891362461737447,0.0,-0.03,-0.74,9.77,0.0,-0.1875,4.3125
16.744115829467773,0.0,0.02,-0.31,-0.04,-0.73,9.43,0,0,0,0,0,0,186.29104275775882,260.4055755064437,10.591259758312333,0.0,-0.71875,-0.625,-0.001090830782496456,-0.001636246173744684,-0.0625,-0.03,-0.74,9.77,0.0,-0.1875,4.3125
16.764432430267334,0.0,0.01,-0.33,-0.02,-0.72,9.44,0,0,0,0,0,0,186.5578419565743,220.25776409716204,-79.32442323654358,-0.75,-0.03125,1.375,-0.12609083078249644,-0.2516362461737447,0.0,-0.03,-0.74,9.77,0.0,-0.1875,4.3125
16.782151222229004,0.01,0.03,-0.32,-0.01,-0.71,9.450000000000001,0,0,0,0,0,0,184.8824803539831,199.38655773596872,-72.16056982691494,-0.75,-0.03125,1.375,-0.12609083078249644,-0.06413624617374468,-0.0625,-0.03,-0.74,9.77,0.0,-0.1875,4.3125
16.80226445198059,0.0,0.01,-0.31,-0.02,-0.73,9.46,0,0,0,0,0,0,185.8913579161533,189.93575521192454,-79.729799195507,-0.75,-0.03125,1.375,0.06140916921750354,0.12336375382625532,-0.0625,-0.03,-0.74,9.77,0.0,-0.1875,4.3125
16.819838762283325,0.0,0.01,-0.3,-0.04,-0.74,9.43,0,0,0,0,0,0,186.42752561373754,185.14785394990247,85.3595946925112,-1.5,-0.40625,0.5625,0.18640916921750356,-0.001636246173744684,-0.125,-0.03,-0.74,9.77,0.0,-0.1875,4.3125
16.838454484939575,-0.01,0.0,-0.34,-0.04,-0.74,9.44,0,0,0,0,0,0,187.65018567902786,3.6274954778395587,85.10228086759784,-1.5,-0.40625,0.5625,0.18640916921750356,0.060863753826255314,0.0625,-0.03,-0.74,9.77,0.0,-0.1875,4.3125
16.857330560684204,0.0,0.01,-0.32,-0.03,-0.72,9.450000000000001,0,0,0,0,0,0,187.27281040754997,92.02497408285997,86.10239041189865,-1.5,-0.40625,0.5625,-0.001090830782496456,0.060863753826255314,-0.0625,-0.03,-0.74,9.77,0.0,-0.1875,4.3125
16.874625205993652,0.0,0.0,-0.34,-0.04,-0.74,9.43,0,0,0,0,0,0,188.01032807593407,136.22371338537016,36.10585790756724,0.375,0.78125,1.0,0.06140916921750354,0.060863753826255314,0.0625,-0.03,-0.74,9.77,0.0,-0.1875,4.3125
16.894691944122314,-0.01,0.01,-0.32,-0.04,-0.72,9.44,0,0,0,0,0,0,187.4533179922546,339.28010195449673,33.78221999953908,0.375,0.78125,1.0,-0.001090830782496456,0.1858637538262553,0.0625,-0.03,-0.74,9.77,0.0,-0.1875,4.3125
16.914772272109985,0.0,0.03,-0.31,-0.04,-0.73,9.450000000000001,0,0,0,0,0,0,185.2743117924583,259.78877732118855,-20.712108664560645,0.375,-0.71875,1.0,-0.06359083078249646,-0.06413624617374468,0.0,-0.03,-0.74,9.77,0.0,-0.1875,4.3125
16.93537735939026,-0.01,0.03,-0.32,-0.03,-0.7000000000000001,9.450000000000001,0,0,0,0,0,0,184.33446527192513,40.99666566108695,-19.309455700068582,0.375,-0.71875,1.0,0.06140916921750354,0.060863753826255314,-0.125,-0.03,-0.74,9.77,0.0,-0.1875,4.3125
16.9555242061615,-0.03,0.01,-0.32,-0.03,-0.71,9.46,0,0,0,0,0,0,185.61885485156915,293.35492267094673,-13.05992234255072,0.375,-0.71875,1.0,-0.001090830782496456,-0.001636246173744684,-0.0625,-0.03,-0.74,9.77,0.0,-0.1875,4.3125
16.974003791809082,-0.02,0.03,-0.3,-0.06,-0.72,9.47,0,0,0,0,0,0,184.428086099885,58.723788560404714,-37.24883960897367,0.75,-0.71875,0.5625,0.24890916921750356,-0.06413624617374468,0.0,-0.03,-0.74,9.77,0.0,-0.1875,4.3125
16.994167804718018,-0.02,0.01,-0.31,-0.02,-0.7000000000000001,9.47,0,0,0,0,0,0,185.60357607505995,301.35535671905865,-36.44636133403071,0.75,-0.71875,0.5625,-0.06359083078249646,-0.06413624617374468,-0.0625,-0.03,-0.74,9.77,0.0,-0.1875,4.3125
17.01428461074829,-0.01,0.0,-0.33,-0.04,-0.74,9.44,0,0,0,0,0,0,187.14446090968903,61.78800699793369,10.399904647688544,0.0,-0.40625,0.1875,-0.001090830782496456,0.12336375382625532,-0.125,-0.03,-0.74,9.77,0.0,-0.1875,4.3125
17.03242540359497,0.01,0.0,-0.34,-0.01,-0.73,9.43,0,0,0,0,0,0,187.82115332700357,120.1066376839589,9.498290466096108,0.0,-0.40625,0.1875,-0.18859083078249644,-0.2516362461737447,-0.0625,-0.03,-0.74,9.77,0.0,-0.1875,4.3125
17.051421880722046,-0.01,0.0,-0.31,-0.04,-0.74,9.46,0,0,0,0,0,0,188.31574953566087,331.21960031891695,11.622806038909545,0.0,-0.40625,0.1875,0.12390916921750354,0.12336375382625532,-0.1875,-0.03,-0.74,9.77,0.0,-0.1875,4.3125
17.068852424621582,0.04,0.0,-0.33,0.01,-0.74,9.44,0,0,0,0,0,0,188.50054763998952,252.30291294388633,77.83182218511266,-1.125,-0.40625,1.375,-0.001090830782496456,-0.06413624617374468,-0.125,-0.03,-0.74,9.77,0.0,-0.1875,4.3125
17.08716607093811,0.03,0.0,-0.32,0.02,-0.73,9.450000000000001,0,0,0,0,0,0,188.53044669215382,213.71602029445575,78.70941915987177,-1.125,-0.40625,1.375,-0.12609083078249644,0.12336375382625532,0.125,-0.03,-0.74,9.77,0.0,-0.1875,4.3125
17.106746435165405,0.04,0.0,-0.34,0.0,-0.72,9.46,0,0,0,0,0,0,188.60789621823596,193.8705680872896,78.05321590343661,-1.125,-0.40625,1.375,-0.001090830782496456,0.3733637538262553,0.0625,-0.03,-0.74,9.77,0.0,-0.1875,4.3125
17.125160455703735,-0.03,-0.01,-0.33,-0.03,-0.75,9.46,0,0,0,0,0,0,9.510911352287884,9.648789699767477,58.36189817471623,-0.75,-0.71875,0.5625,-0.001090830782496456,-0.1266362461737447,0.0625,-0.03,-0.74,9.77,0.0,-0.1875,4.3125
17.145280122756958,0.0,0.02,-0.35000000000000003,-0.05,-0.72,9.450000000000001,0,0,0,0,0,0,97.46288458671121,95.06687119382393,-30.87419686795141,-0.75,-0.71875,0.5625,-0.001090830782496456,0.12336375382625532,0.0625,-0.03,-0.74,9.77,0.0,-0.1875,4.3125
17.16551923751831,-0.01,0.04,-0.33,-0.04,-0.6900000000000001,9.44,0,0,0,0,0,0,139.58882178919478,318.574962046827,31.888090143366554,-0.75,-0.40625,0.5625,-0.06359083078249646,-0.001636246173744684,0.0,-0.03,-0.74,9.77,0.0,-0.1875,4.3125
17.183532238006592,-0.01,0.02,-0.33,-0.04,-0.71,9.44,0,0,0,0,0,0,162.40376284444125,70.30247115702402,50.75953623586679,-0.75,-0.40625,0.5625,-0.001090830782496456,-0.06413624617374468,0.0,-0.03,-0.74,9.77,0.0,-0.1875,4.3125
17.203020334243774,-0.04,0.02,-0.31,-0.07,-0.72,9.46,0,0,0,0,0,0,173.71399539041192,309.09360784117104,63.71232660840107,-0.75,-0.40625,0.5625,-0.001090830782496456,0.1858637538262553,-0.125,-0.03,-0.74,9.77,0.0,-0.1875,4.3125
17.220294713974,-0.06,0.03,-0.32,-0.06,-0.73,9.47,0,0,0,0,0,0,178.59861487823102,70.01395032103409,15.088014183839107,0.0,-1.09375,1.0,0.06140916921750354,-0.001636246173744684,-0.0625,-0.03,-0.74,9.77,0.0,-0.1875,4.3125
17.238784313201904,-0.01,0.01,-0.35000000000000003,-0.05,-0.71,9.41,0,0,0,0,0,0,182.76152540001738,305.9111564157144,7.617151262158728,0.0,-1.09375,1.0,-0.12609083078249644,-0.1891362461737447,-0.0625,-0.03,-0.74,9.77,0.0,-0.1875,4.3125
17.25787115097046,0.0,0.0,-0.3,-0.04,-0.72,9.49,0,0,0,0,0,0,185.78593557216777,243.19805455179738,8.24045957949562,0.0,-1.09375,1.0,0.12390916921750354,0.12336375382625532,-0.125,-0.03,-0.74,9.77,0.0,-0.1875,4.3125
17.27556800842285,0.0,0.0,-0.33,-0.03,-0.74,9.44,0,0,0,0,0,0,187.26689065824297,211.90400361983887,-60.423370965108106,-1.125,0.40625,0.5625,0.06140916921750354,0.2483637538262553,-0.0625,-0.03,-0.74,9.77,0.0,-0.1875,4.3125
17.295682668685913,0.02,0.0,-0.33,0.0,-0.72,9.43,0,0,0,0,0,0,187.97611820128054,194.36661352440106,-59.10986248411963,-1.125,0.40625,0.5625,-0.001090830782496456,-0.06413624617374468,0.0,-0.03,-0.74,9.77,0.0,-0.1875,4.3125
17.315744638442993,0.01,0.0,-0.3,-0.01,-0.75,9.47,0,0,0,0,0,0,188.36198197279936,186.47120688964253,70.82109422747166,-0.75,-0.40625,1.375,0.06140916921750354,0.12336375382625532,-0.0625,-0.03,-0.74,9.77,0.0,-0.1875,4.3125
17.334413051605225,0.02,0.0,-0.34,0.0,-0.74,9.43,0,0,0,0,0,0,188.55491385855873,181.76359945704655,69.70178998843656,-0.75,-0.40625,1.375,0.06140916921750354,0.060863753826255314,0.0,-0.03,-0.74,9.77,0.0,-0.1875,4.3125
17.35435461997986,0.02,0.01,-0.33,0.0,-0.73,9.44,0,0,0,0,0,0,187.7226160117681,179.26595515014824,72.30784782751178,-0.75,-0.40625,1.375,-0.06359083078249646,-0.1266362461737447,0.0625,-0.03,-0.74,9.77,0.0,-0.1875,4.3125
17.371569871902466,0.0,0.0,-0.34,0.0,-0.73,9.450000000000001,0,0,0,0,0,0,188.17273087804313,179.84420391901432,-32.08213507199048,0.375,-0.40625,0.1875,-0.06359083078249646,0.060863753826255314,0.0625,-0.03,-0.74,9.77,0.0,-0.1875,4.3125
17.390907049179077,0.0,0.01,-0.33,-0.02,-0.74,9.43,0,0,0,0,0,0,187.65493601671645,180.13332830344734,-32.14761859163329,0.375,-0.40625,0.1875,0.18640916921750356,0.060863753826255314,0.0625,-0.03,-0.74,9.77,0.0,-0.1875,4.3125
17.409735679626465,0.0,0.02,-0.34,-0.04,-0.73,9.46,0,0,0,0,0,0,186.45566054880237,180.21539049566385,-32.9521577264903,0.375,-0.40625,0.1875,-0.06359083078249646,-0.06413624617374468,-0.0625,-0.03,-0.74,9.77,0.0,-0.1875,4.3125
17.42718768119812,0.02,0.03,-0.33,-0.04,-0.7000000000000001,9.43,0,0,0,0,0,0,184.85301954869215,178.5294113360169,-44.48023689470236,-0.75,0.40625,1.0,-0.25109083078249644,-0.06413624617374468,-0.0625,-0.03,-0.74,9.77,0.0,-0.1875,4.3125
17.44706964492798,0.02,0.01,-0.36,-0.04,-0.71,9.47,0,0,0,0,0,0,185.91233677969956,177.69912873312194,-48.83096838273842,-0.75,0.40625,1.0,-0.12609083078249644,-0.3141362461737447,0.0625,-0.03,-0.74,9.77,0.0,-0.1875,4.3125
17.46877145767212,-0.04,0.03,-0.26,-0.02,-0.72,9.41,0,0,0,0,0,0,184.1395573409845,3.3429899417579767,73.62883892013011,-0.75,-0.40625,0.1875,0.18640916921750356,-0.06413624617374468,0.0,-0.03,-0.74,9.77,0.0,-0.1875,4.3125
17.487255811691284,0.0,0.02,-0.34,-0.03,-0.73,9.44,0,0,0,0,0,0,184.79172121093643,91.88272131481918,71.18279656185055,-0.75,-0.40625,0.1875,0.12390916921750354,0.060863753826255314,-0.125,-0.03,-0.74,9.77,0.0,-0.1875,4.3125
17.507376670837402,-0.01,0.0,-0.31,-0.02,-0.72,9.43,0,0,0,0,0,0,186.7072834776273,316.9513921343471,70.89876244786527,-0.75,-0.40625,0.1875,-0.06359083078249646,-0.1891362461737447,0.0625,-0.03,-0.74,9.77,0.0,-0.1875,4.3125
17.52591037750244,-0.02,0.02,-0.3,-0.05,-0.71,9.47,0,0,0,0,0,0,185.88723855499535,70.7459984670911,84.03622512686579,-0.75,-0.40625,2.1875,0.18640916921750356,0.3733637538262553,0.0625,-0.03,-0.74,9.77,0.0,-0.1875,4.3125
17.545928239822388,0.0,0.0,-0.34,-0.02,-0.73,9.43,0,0,0,0,0,0,187.38004214965673,125.64672557748574,71.39163753262127,-0.75,-0.40625,2.1875,0.18640916921750356,0.1858637538262553,0.0,-0.03,-0.74,9.77,0.0,-0.1875,4.3125
17.5659339427948,0.0,0.0,-0.31,-0.03,-0.74,9.46,0,0,0,0,0,0,188.09519394698742,153.03458913268304,72.10678932995197,-0.75,-0.40625,-0.1875,0.12390916921750354,0.060863753826255314,-0.0625,-0.03,-0.74,9.77,0.0,-0.1875,4.3125
17.582204580307007,0.0,0.0,-0.33,-0.01,-0.73,9.41,0,0,0,0,0,0,188.39026984565277,166.6347709102817,72.40186522861731,-0.75,-0.40625,-0.1875,-0.001090830782496456,-0.1266362461737447,0.0625,-0.03,-0.74,9.77,0.0,-0.1875,4.3125
17.60019874572754,0.0,0.0,-0.28,-0.03,-0.73,9.450000000000001,0,0,0,0,0,0,188.53780779498544,173.59111179908103,72.54940317794998,-0.75,-0.40625,-0.1875,-0.001090830782496456,0.1858637538262553,0.0,-0.03,-0.74,9.77,0.0,-0.1875,4.3125
17.619203090667725,0.03,0.0,-0.34,-0.04,-0.74,9.44,0,0,0,0,0,0,188.54907676965178,174.48555670889525,68.03174562310639,-0.75,-0.40625,1.375,-0.12609083078249644,0.060863753826255314,-0.0625,-0.03,-0.74,9.77,0.0,-0.1875,4.3125
17.637330293655396,0.02,0.01,-0.32,-0.01,-0.73,9.450000000000001,0,0,0,0,0,0,187.78649767767314,175.63545773762846,72.38640910434205,-0.75,-0.40625,1.375,0.12390916921750354,-0.001636246173744684,0.125,-0.03,-0.74,9.77,0.0,-0.1875,4.3125
17.657150268554688,0.01,-0.01,-0.31,-0.01,-0.76,9.46,0,0,0,0,0,0,9.159246903567741,177.1368800201823,68.14787156459764,-0.75,-0.40625,1.375,-0.001090830782496456,0.12336375382625532,0.0,-0.03,-0.74,9.77,0.0,-0.1875,4.3125
17.675204038619995,0.0,0.02,-0.33,-0.03,-0.72,9.44,0,0,0,0,0,0,97.18818169448436,178.71716635403135,-11.879616416979474,-0.75,-0.40625,1.375,-0.001090830782496456,-0.06413624617374468,0.0,-0.03,-0.74,9.77,0.0,-0.1875,4.3125
17.694793701171875,0.0,0.02,-0.33,-0.03,-0.71,9.44,0,0,0,0,0,0,141.26514908994267,179.44480952095586,32.19735097847885,-0.75,-0.40625,1.375,0.12390916921750354,-0.1891362461737447,0.0625,-0.03,-0.74,9.77,0.0,-0.1875,4.3125
17.713782787322998,0.0,0.02,-0.34,-0.04,-0.73,9.450000000000001,0,0,0,0,0,0,163.3232670854155,179.9336311044181,-12.53897857554179,0.0,-0.03125,0.1875,0.06140916921750354,0.060863753826255314,0.0625,-0.03,-0.74,9.77,0.0,-0.1875,4.3125
17.730489015579224,-0.02,0.01,-0.35000000000000003,-0.03,-0.71,9.43,0,0,0,0,0,0,175.15609988939593,1.8438702666644096,20.955016001974997,0.0,-0.03125,0.1875,-0.06359083078249646,0.12336375382625532,0.0,-0.03,-0.74,9.77,0.0,-0.1875,4.3125
17.749467611312866,-0.02,1.29,-0.34,-0.06,-0.71,9.48,0,0,0,0,0,0,144.28438726017245,271.5313655230272,3.957068524869186,0.0,-0.03125,0.1875,-0.06359083078249646,-0.001636246173744684,0.0625,-0.03,-0.74,9.77,0.0,-0.1875,4.3125
17.769181966781616,-0.02,0.02,-0.33,-0.05,-0.74,9.43,0,0,0,0,0,0,164.72267017821437,47.77035542948471,-82.34803703418942,-1.125,0.40625,-0.625,-0.06359083078249646,0.1858637538262553,0.0,-0.03,-0.74,9.77,0.0,-0.1875,4.3125
17.78714108467102,0.01,0.0,-0.33,-0.05,-0.7000000000000001,9.47,0,0,0,0,0,0,176.67275796126626,113.16605176421835,-71.3128227773287,-1.125,0.40625,-0.625,-0.06359083078249646,-0.06413624617374468,0.125,-0.03,-0.74,9.77,0.0,-0.1875,4.3125
17.807446479797363,0.0,0.0,-0.34,-0.03,-0.75,9.43,0,0,0,0,0,0,182.5853018527922,146.79425222604937,-65.10495977055886,-1.125,0.40625,-0.625,-0.18859083078249644,0.060863753826255314,-0.0625,-0.03,-0.74,9.77,0.0,-0.1875,4.3125
17.82630729675293,-0.01,0.0,-0.3,-0.04,-0.73,9.47,0,0,0,0,0,0,185.6040737985552,344.46917867346303,80.57647168911868,-2.25,-0.71875,1.0,-0.06359083078249646,-0.1266362461737447,0.0625,-0.03,-0.74,9.77,0.0,-0.1875,4.3125
17.84644889831543,0.0,0.03,-0.31,-0.02,-0.7000000000000001,9.46,0,0,0,0,0,0,184.3496896956086,262.5395656806717,84.18383439683132,-2.25,-0.71875,1.0,-0.06359083078249646,0.2483637538262553,-0.0625,-0.03,-0.74,9.77,0.0,-0.1875,4.3125
17.866814374923706,0.0,0.02,-0.29,-0.01,-0.73,9.48,0,0,0,0,0,0,184.57617460544458,221.41850918427605,43.0186839522822,-0.4375,-0.71875,1.0,0.06140916921750354,-0.06413624617374468,-0.0625,-0.03,-0.74,9.77,0.0,-0.1875,4.3125
17.883350133895874,0.02,0.01,-0.32,-0.03,-0.73,9.42,0,0,0,0,0,0,185.67504659556954,199.00818397531884,37.50993894592901,-0.4375,-0.71875,1.0,-0.12609083078249644,-0.1891362461737447,-0.0625,-0.03,-0.74,9.77,0.0,-0.1875,4.3125
17.902281522750854,0.0,0.0,-0.31,-0.02,-0.72,9.46,0,0,0,0,0,0,187.24269616994383,189.8090683315996,41.025913045075896,-0.4375,-0.71875,1.0,0.12390916921750354,0.2483637538262553,-0.0625,-0.03,-0.74,9.77,0.0,-0.1875,4.3125
17.921025276184082,0.0,0.02,-0.33,-0.02,-0.73,9.44,0,0,0,0,0,0,186.19865632767244,185.08451050973997,72.00696027247969,-1.125,-0.71875,1.8125,-0.06359083078249646,-0.001636246173744684,-0.125,-0.03,-0.74,9.77,0.0,-0.1875,4.3125
17.939560651779175,-0.02,0.0,-0.3,-0.04,-0.73,9.43,0,0,0,0,0,0,187.4420010359953,4.785519015955344,69.85986481362826,-1.125,-0.71875,1.8125,-0.001090830782496456,0.3108637538262553,-0.125,-0.03,-0.74,9.77,0.0,-0.1875,4.3125
17.95961570739746,-0.01,0.01,-0.33,-0.04,-0.73,9.43,0,0,0,0,0,0,187.13371904102115,273.44019020105344,71.10527537327457,-1.125,-0.71875,1.8125,-0.12609083078249644,-0.001636246173744684,0.125,-0.03,-0.74,9.77,0.0,-0.1875,4.3125
17.97818398475647,-0.02,0.0,-0.34,-0.04,-0.71,9.47,0,0,0,0,0,0,187.84703239266963,48.61455177618181,60.254296921764904,-0.75,-0.71875,1.8125,-0.12609083078249644,0.060863753826255314,0.0,-0.03,-0.74,9.77,0.0,-0.1875,4.3125
17.998239994049072,0.0,0.01,-0.33,-0.01,-0.72,9.44,0,0,0,0,0,0,187.3983367740297,114.3935022320311,59.221688748143066,-0.75,-0.71875,1.8125,-0.001090830782496456,-0.1891362461737447,-0.125,-0.03,-0.74,9.77,0.0,-0.1875,4.3125
18.01843762397766,0.0,0.0,-0.32,-0.03,-0.74,9.450000000000001,0,0,0,0,0,0,188.0418412591739,147.37672745995573,56.71524050163353,-0.75,-0.71875,2050.5625,-0.001090830782496456,-0.001636246173744684,0.0,-0.03,-0.74,9.77,0.0,-0.1875,4.3125
18.036836624145508,-0.01,0.0,-0.34,-0.04,-0.73,9.42,0,0,0,0,0,0,188.17609350174604,344.6794322328662,59.568217105406205,-0.75,-0.71875,2.5625,-0.37609083078249644,-0.06413624617374468,-0.125,-0.03,-0.74,9.77,0.0,-0.1875,4.3125
18.05657386779785,0.0,0.01,-0.31,-0.03,-0.73,9.46,0,0,0,0,0,0,187.56941449003477,262.4571924603733,60.66055415459371,-0.75,-0.71875,2.5625,0.12390916921750354,-0.1266362461737447,0.0625,-0.03,-0.74,9.77,0.0,-0.1875,4.3125
18.077144145965576,0.0,0.02,-0.32,-0.03,-0.71,9.450000000000001,0,0,0,0,0,0,186.30796292967779,221.47107257412682,-77.36542463884767,-1.5,-0.03125,1.375,-0.06359083078249646,0.12336375382625532,-0.0625,-0.03,-0.74,9.77,0.0,-0.1875,4.3125
18.0972580909729,-0.01,0.03,-0.32,-0.04,-0.7000000000000001,9.450000000000001,0,0,0,0,0,0,184.7262908405349,21.744063287556088,-76.53675679407424,-1.5,-0.03125,1.375,-0.18859083078249644,-0.1266362461737447,0.0,-0.03,-0.74,9.77,0.0,-0.1875,4.3125
18.116853713989258,0.0,0.01,-0.32,-0.04,-0.72,9.450000000000001,0,0,0,0,0,0,185.77961298830348,101.02075798771823,71.04499293306324,-0.75,-0.40625,0.1875,-0.06359083078249646,-0.06413624617374468,-0.0625,-0.03,-0.74,9.77,0.0,-0.1875,-2043.6875
18.133272647857666,0.0,0.0,-0.32,-0.04,-0.72,9.47,0,0,0,0,0,0,187.20122936631083,140.6903553377993,71.21282474927531,-0.75,-0.40625,0.1875,-0.06359083078249646,-0.001636246173744684,-0.0625,-0.03,-0.74,9.77,0.0,-0.1875,4.3125
18.15161657333374,0.0,0.02,-0.34,-0.02,-0.72,9.450000000000001,0,0,0,0,0,0,186.29130722359957,160.65015401283983,72.6823825745137,-0.75,-0.40625,0.1875,0.06140916921750354,0.2483637538262553,0.0625,-0.03,-0.74,9.77,0.0,-0.1875,4.3125
18.171026706695557,-0.01,0.02,-0.32,-0.03,-0.71,9.47,0,0,0,0,0,0,185.7635295231995,351.42951692967193,60.89395135094534,-0.4375,-0.40625,0.5625,0.12390916921750354,0.060863753826255314,-0.0625,-0.03,-0.74,9.77,0.0,-0.1875,4.3125
18.188955307006836,0.0,0.0,-0.3,-0.03,-0.7000000000000001,9.450000000000001,0,0,0,0,0,0,187.19318763375884,265.86348480877615,56.76880803774813,-0.4375,-0.40625,0.5625,-0.06359083078249646,-0.06413624617374468,0.0625,-0.03,-0.74,9.77,0.0,-0.1875,4.3125
18.208645820617676,0.0,0.02,-0.33,-0.03,-0.72,9.44,0,0,0,0,0,0,186.20515205957992,223.14296874832826,60.059491126865026,-0.4375,-0.40625,0.5625,-0.001090830782496456,0.060863753826255314,-0.0625,-0.03,-0.74,9.77,0.0,-0.1875,4.3125
18.22618317604065,-0.02,0.0,-0.31,-0.05,-0.73,9.450000000000001,0,0,0,0,0,0,187.38274890194901,23.659653711329952,59.04631895109824,0.0,-0.03125,0.5625,-0.12609083078249644,0.12336375382625532,0.0625,-0.03,-0.74,9.77,0.0,-0.1875,4.3125
18.244372129440308,-0.01,0.0,-0.32,-0.04,-0.73,9.44,0,0,0,0,0,0,188.12779732313356,282.9360085037282,39.928127889980175,0.0,-0.03125,0.5625,0.18640916921750356,0.060863753826255314,0.0,-0.03,-0.74,9.77,0.0,-0.1875,4.3125
18.26289200782776,-0.02,0.02,-0.28,-0.02,-0.71,9.47,0,0,0,0,0,0,186.4001870196598,53.59186510987034,-66.70414982490864,0.0,-0.03125,0.5625,0.06140916921750354,-0.1891362461737447,-0.0625,-0.03,-0.74,9.77,0.0,-0.1875,4.3125
18.280189752578735,-0.01,0.02,-0.34,-0.04,-0.73,9.46,0,0,0,0,0,0,185.82901194681,297.8792983250794,45.34596626782877,-0.4375,-0.71875,1.0,-0.06359083078249646,0.12336375382625532,0.0,-0.03,-0.74,9.77,0.0,-0.1875,4.3125
18.300093412399292,0.0,0.02,-0.32,-0.01,-0.74,9.450000000000001,0,0,0,0,0,0,185.4377616580654,239.08837550647988,43.42208790470232,-0.4375,-0.71875,1.0,-0.06359083078249646,-0.06413624617374468,-0.0625,-0.03,-0.74,9.77,0.0,-0.1875,4.3125
18.320393562316895,0.01,0.02,-0.29,-0.01,-0.71,9.48,0,0,0,0,0,0,185.02762861146192,208.70778521780687,-75.2164693242571,-0.4375,-0.03125,1.0,-0.12609083078249644,-0.06413624617374468,0.0,-0.03,-0.74,9.77,0.0,-0.1875,4.3125
18.33888006210327,0.0,0.01,-0.33,-0.02,-0.72,9.44,0,0,0,0,0,0,186.05113488342585,194.44011895284362,99.24955144136575,-0.4375,-0.03125,1.0,0.12390916921750354,-0.1891362461737447,-0.0625,-0.03,-0.74,9.77,0.0,-0.1875,4.3125
18.358864068984985,0.01,0.0,-0.32,-0.01,-0.74,9.450000000000001,0,0,0,0,0,0,187.39949031387198,186.53633051623896,95.45317011844244,-0.4375,-0.03125,1.0,0.06140916921750354,0.060863753826255314,0.0625,-0.03,-0.74,9.77,0.0,-0.1875,4.3125
18.376847743988037,-0.02,0.02,-0.32,-0.05,-0.71,9.450000000000001,0,0,0,0,0,0,186.25772414521708,5.232835485937641,-52.982872820219384,0.0,-0.03125,1.0,-0.001090830782496456,-0.001636246173744684,0.0625,-0.03,-0.74,9.77,0.0,-0.1875,4.3125
18.39587140083313,0.0,0.03,-0.33,-0.05,-0.71,9.42,0,0,0,0,0,0,184.96807049090023,92.952644086909,10.019808952095588,0.0,-0.03125,1.0,0.18640916921750356,0.3108637538262553,-0.125,-0.03,-0.74,9.77,0.0,-0.1875,4.3125
18.4147629737854,0.0,0.03,-0.34,-0.04,-0.72,9.44,0,0,0,0,0,0,184.24298258302372,136.71879838739468,9.21873212493719,0.0,-0.03125,1.0,-0.12609083078249644,0.12336375382625532,0.125,-0.03,-0.74,9.77,0.0,-0.1875,4.3125
18.431965112686157,-0.01,0.01,-0.31,-0.02,-0.73,9.47,0,0,0,0,0,0,185.44708897109882,339.49395073020963,9.203064569413101,0.0,-1.09375,0.1875,-0.18859083078249644,0.060863753826255314,-0.0625,-0.03,-0.74,9.77,0.0,-0.1875,4.3125
18.45174527168274,0.0,0.02,-0.31,-0.04,-0.72,9.47,0,0,0,0,0,0,185.18927436448286,259.833201709045,9.489491365036343,0.0,-1.09375,0.1875,-0.06359083078249646,-0.1891362461737447,0.0,-0.03,-0.74,9.77,0.0,-0.1875,4.3125
18.471971035003662,0.0,0.0,-0.3,-0.03,-0.7000000000000001,9.450000000000001,0,0,0,0,0,0,186.90606005440048,220.06532719846268,9.36058406172836,0.0,-0.40625,1.0,-0.06359083078249646,-0.06413624617374468,0.0,-0.03,-0.74,9.77,0.0,-0.1875,4.3125
18.49031972885132,0.0,0.0,-0.35000000000000003,-0.03,-0.74,9.43,0,0,0,0,0,0,187.8582028993593,200.40013994317152,10.312726906687175,0.0,-0.40625,1.0,0.12390916921750354,0.3733637538262553,-0.125,-0.03,-0.74,9.77,0.0,-0.1875,4.3125
18.510359287261963,0.0,0.02,-0.32,-0.03,-0.72,9.450000000000001,0,0,0,0,0,0,186.38985713434005,190.28629631552593,10.63254832916661,0.0,-8.40625,1.0,-0.18859083078249644,-0.1891362461737447,0.0,-0.03,-0.74,9.77,0.0,-0.1875,4.3125
18.529040098190308,-0.01,0.0,-0.33,-0.04,-0.73,9.44,0,0,0,0,0,0,187.56885143932908,6.253476796167333,72.50971785400034,-0.75,-0.40625,1.0,0.06140916921750354,0.12336375382625532,0.0,-0.03,-0.74,9.77,0.0,-0.1875,4.3125
18.54866313934326,0.0,0.02,-0.32,-0.03,-0.71,9.450000000000001,0,0,0,0,0,0,186.37018140432494,93.33796474202384,76.0315844580069,-0.75,-0.40625,1.0,0.06140916921750354,0.060863753826255314,0.0,-0.03,-0.74,9.77,0.0,-0.1875,4.3125
18.568257331848145,0.0,0.02,-0.3,-0.03,-0.74,9.46,0,0,0,0,0,0,185.55822615717636,136.94270871495212,70.79775170913018,-0.75,-0.40625,-0.1875,-0.12609083078249644,0.1858637538262553,-0.0625,-0.03,-0.74,9.77,0.0,-0.1875,4.3125
18.58331274986267,0.0,0.01,-0.31,-0.02,-0.73,9.44,0,0,0,0,0,0,186.19798081774996,158.71383070141624,70.78991891418875,-0.75,-0.40625,-0.1875,-0.001090830782496456,0.12336375382625532,-0.125,-0.03,-0.74,9.77,0.0,-0.1875,4.3125
18.60277247428894,-0.01,0.0,-0.32,-0.03,-0.75,9.47,0,0,0,0,0,0,187.31666328103404,350.46309699877133,71.12789694635379,-0.75,-0.40625,-0.1875,-0.25109083078249644,0.060863753826255314,-0.1875,-0.03,-0.74,9.77,0.0,-0.1875,4.3125
18.62269878387451,0.01,0.03,-0.29,-0.01,-0.73,9.450000000000001,0,0,0,0,0,0,184.95592569292901,264.3980453984615,65.45199598320406,-1.5,-1.09375,0.5625,-0.18859083078249644,-0.06413624617374468,-0.0625,-0.03,-0.74,9.77,0.0,-0.1875,4.3125
18.641192197799683,0.01,0.01,-0.32,-0.01,-0.73,9.42,0,0,0,0,0,0,185.95736680075208,221.51573012529943,63.30893222918829,-1.5,-1.09375,0.5625,0.06140916921750354,0.060863753826255314,-0.0625,-0.03,-0.74,9.77,0.0,-0.1875,4.3125
18.661298513412476,0.0,0.01,-0.31,-0.02,-0.73,9.44,0,0,0,0,0,0,186.42880113953782,200.96909140658988,64.17807106201664,-1.5,-1.09375,0.5625,0.06140916921750354,0.060863753826255314,-0.0625,-0.03,-0.74,9.77,0.0,-0.1875,4.3125
18.68187117576599,0.0,0.01,-0.31,-0.02,326.95,9.43,0,0,0,0,0,0,186.50826830893067,190.69577204723512,58.325259463615765,-0.4375,-0.40625,0.5625,-0.25109083078249644,0.060863753826255314,-0.0625,-0.03,-0.74,9.77,0.0,-0.1875,4.3125
18.702142238616943,0.0,0.01,-0.32,-0.06,-0.7000000000000001,9.450000000000001,0,0,0,0,0,0,186.70185172250137,185.55911236755776,58.44755556975903,-0.4375,-0.40625,0.5625,-0.001090830782496456,0.060863753826255314,0.0625,-0.03,-0.74,9.77,0.0,-0.1875,4.3125
18.722364902496338,-0.02,0.0,-0.29,-0.04,-0.73,9.46,0,0,0,0,0,0,187.72484873340977,4.963375642237835,-12.835351088611873,0.375,-0.71875,1.0,0.06140916921750354,0.060863753826255314,0.0625,-0.03,-0.74,9.77,0.0,-0.1875,4.3125
18.74080514907837,0.0,0.0,-0.32,-0.03,-0.73,9.450000000000001,0,0,0,0,0,0,188.33009723886397,92.69291416505911,-16.768190330525982,0.375,-0.71875,1.0,0.24890916921750356,0.060863753826255314,-0.125,-0.03,-0.74,9.77,0.0,-0.1875,4.3125
18.760770797729492,-0.01,0.02,-0.32,-0.04,-0.71,9.450000000000001,0,0,0,0,0,0,186.6891745308317,317.35714700578154,-16.660744107285524,0.375,-0.71875,1.0,-0.06359083078249646,-0.1266362461737447,-0.0625,-0.03,-0.74,9.77,0.0,-0.1875,4.3125
18.778022050857544,0.0,0.01,-0.31,-0.05,-0.73,9.48,0,0,0,0,0,0,186.82595500457762,248.85854984683095,72.1321806070033,-0.75,-0.40625,0.1875,0.12390916921750354,-0.001636246173744684,0.0,-0.03,-0.74,9.77,0.0,-0.1875,4.3125
18.79649591445923,0.0,0.0,-0.33,-0.04,-0.74,9.44,0,0,0,0,0,0,187.7556503744479,214.54675126735566,71.76724575741238,-0.75,-0.40625,0.1875,-0.001090830782496456,-0.1266362461737447,-0.0625,-0.03,-0.74,9.77,0.0,-0.1875,4.3125
18.815277338027954,0.0,0.0,-0.34,-0.03,-0.73,9.44,0,0,0,0,0,0,188.22049805938303,197.515851977618,72.23209344234752,-0.75,-0.40625,0.1875,-0.001090830782496456,0.12336375382625532,-0.0625,-0.03,-0.74,9.77,0.0,-0.1875,4.3125
18.833094835281372,0.01,0.0,-0.34,-0.04,-0.72,9.48,0,0,0,0,0,0,188.45292190185057,188.12681017380106,55.00221744774032,-0.75,-0.71875,1.8125,-0.001090830782496456,0.060863753826255314,-0.125,-0.03,-0.74,9.77,0.0,-0.1875,4.3125
18.85331630706787,0.0,0.0,-0.31,-0.02,-0.73,9.450000000000001,0,0,0,0,0,0,188.56913382308437,184.2746314308407,57.24253306554354,-0.75,-0.71875,1.8125,-0.001090830782496456,0.060863753826255314,0.0,-0.03,-0.74,9.77,0.0,-0.1875,4.3125
18.87353014945984,0.02,0.02,-0.3,-0.04,-0.74,9.450000000000001,0,0,0,0,0,0,186.78691372772388,180.44571600338315,-76.40799510535312,-1.5,-0.03125,1.375,0.12390916921750354,0.060863753826255314,-0.0625,-0.03,-0.74,9.77,0.0,-0.1875,4.3125
18.891984462738037,0.0,0.02,-0.32,-0.03,-0.72,9.43,0,0,0,0,0,0,185.88546254852236,180.37158434563176,-77.78792502000312,-1.5,-0.03125,1.375,-0.12609083078249644,-0.06413624617374468,0.0625,-0.03,-0.74,9.77,0.0,-0.1875,4.3125
18.912081718444824,0.0,0.02,-0.29,-0.03,-0.72,9.48,0,0,0,0,0,0,185.25031103190148,180.27201851675608,-77.901284041621,-1.5,-0.03125,1.375,-0.12609083078249644,-0.1891362461737447,0.0625,-0.03,-0.74,9.77,0.0,-0.1875,4.3125
18.930585622787476,0.0,0.01,-0.3,-0.03,-0.72,9.47,0,0,0,0,0,0,186.0757521716116,180.40973560231822,-78.60705414515942,-0.4375,-0.03125,1.375,0.12390916921750354,0.1858637538262553,-0.125,-0.03,-0.74,9.77,0.0,-0.1875,4.3125
18.950066089630127,0.0,0.01,-0.34,-0.02,-0.73,9.43,0,0,0,0,0,0,186.50695679901673,180.3223441450993,-78.99318128683011,-0.4375,-0.03125,1.375,-0.06359083078249646,-0.1266362461737447,0.0,-0.03,-0.74,9.77,0.0,-0.1875,12.3125
18.968925952911377,0.0,0.02,-0.3,-0.03,-0.74,9.450000000000001,0,0,0,0,0,0,185.75161385452225,180.40364841648983,-72.04147630745628,-0.4375,-0.03125,1.375,0.12390916921750354,0.12336375382625532,-0.0625,-0.03,-0.74,9.77,0.0,-0.1875,4.3125
18.984923601150513,-0.01,0.03,-0.31,-0.05,-0.73,9.49,0,0,0,0,0,0,184.48738767616825,1.3325629604418898,12.846040168242865,0.0,-0.40625,0.5625,0.06140916921750354,0.060863753826255314,0.0,-0.03,-0.74,9.77,0.0,-0.1875,4.3125
19.004530906677246,0.0,0.02,-0.34,-0.06,-0.73,9.44,0,0,0,0,0,0,184.8406363785283,90.78375782416113,8.978390717571045,0.0,-0.40625,0.5625,-0.12609083078249644,-0.1266362461737447,0.0,-0.03,-0.74,9.77,0.0,-0.1875,4.3125
19.0244300365448,-0.02,0.0,-0.3,-0.02,-0.71,9.46,0,0,0,0,0,0,186.82549106142324,317.44764267316594,97.0837841114483,-0.75,-0.03125,1.0,0.12390916921750354,-0.06413624617374468,-0.125,-0.03,-0.74,9.77,0.0,-0.1875,4.3125
19.042582273483276,-0.01,0.0,-0.31,-0.02,-0.73,9.44,0,0,0,0,0,0,187.7554184028707,69.79635281352046,97.9210923707137,-0.75,-0.03125,1.0,-0.001090830782496456,-0.06413624617374468,-0.0625,-0.03,-0.74,9.77,0.0,-0.1875,4.3125
19.06265377998352,-0.01,0.01,-0.31,-0.04,-0.72,9.46,0,0,0,0,0,0,187.3595568810223,306.0014779432725,-79.18998743369609,-0.75,-0.03125,1.0,0.12390916921750354,-0.001636246173744684,-0.0625,-0.03,-0.74,9.77,0.0,-0.1875,4.3125
19.08067274093628,0.0,0.01,-0.33,-0.03,-0.73,9.44,0,0,0,0,0,0,187.09209901820606,243.18071531557644,10.41447531999782,0.0,-0.03125,0.5625,-0.12609083078249644,-0.001636246173744684,0.0625,-0.03,-0.74,9.77,0.0,-0.1875,4.3125
19.09977912902832,0.0,0.0,-0.32,-0.02,-0.71,9.41,0,0,0,0,0,0,187.91997238126208,211.6765840017284,10.374496388589847,0.0,-0.03125,0.5625,0.06140916921750354,-0.1891362461737447,0.0,-0.03,-0.74,9.77,0.0,-0.1875,4.3125
19.118398666381836,-0.01,0.02,-0.3,-0.02,-0.72,9.48,0,0,0,0,0,0,186.45917710688724,16.970731885073533,-60.81848179375693,0.0,-0.03125,0.5625,0.12390916921750354,-0.001636246173744684,-0.125,-0.03,-0.74,9.77,0.0,-0.1875,4.3125
19.135030508041382,0.0,0.0,-0.33,-0.05,-0.71,9.46,0,0,0,0,0,0,187.57226142560268,98.60284228647694,71.58385680856722,-0.75,-0.40625,1.375,-0.001090830782496456,-0.1266362461737447,0.0,-0.03,-0.74,9.77,0.0,-0.1875,4.3125
19.154623985290527,0.01,0.01,-0.32,-0.02,-0.72,9.49,0,0,0,0,0,0,187.2342846670889,138.55562856930715,73.37565929789477,-0.75,-0.40625,1.375,-0.001090830782496456,-0.06413624617374468,-0.0625,-0.03,-0.74,9.77,0.0,-0.1875,4.3125
19.174816846847534,0.03,0.02,-0.33,-0.03,-0.73,9.47,0,0,0,0,0,0,186.3265549499483,156.89655703072566,56.30635606845462,-0.75,-0.71875,0.1875,0.18640916921750356,0.060863753826255314,0.0625,-0.03,-0.74,9.77,0.0,-0.1875,4.3125
19.193140506744385,0.0,0.01,-0.33,-0.02,-0.75,9.44,0,0,0,0,0,0,186.63809805266902,168.597004859303,56.41959887945717,-0.75,-0.71875,0.1875,-0.001090830782496456,-0.06413624617374468,-0.0625,-0.03,-0.74,9.77,0.0,-0.1875,4.3125
19.213154554367065,-0.02,0.02,-0.33,-0.05,-0.72,9.44,0,0,0,0,0,0,185.96202557446264,356.2719250976226,57.348148034335026,-0.75,-0.71875,0.1875,0.06140916921750354,0.12336375382625532,-0.0625,-0.03,-0.74,-317.91,0.0,-0.1875,4.3125
19.231815338134766,0.0,0.0,-0.3,-0.03,-0.74,9.47,0,0,0,0,0,0,187.29243565939038,268.1284388927515,98.15581939552371,-1.125,-0.03125,1.375,-0.06359083078249646,-0.3766362461737447,0.0625,-0.03,-0.74,9.77,0.0,-0.1875,4.3125
19.251433849334717,0.0,0.03,-0.32,-0.03,-0.71,9.450000000000001,0,0,0,0,0,0,185.27972818042667,224.24419579031593,-74.64823137445903,-1.125,-0.03125,1.375,-0.06359083078249646,-0.001636246173744684,-0.125,-0.03,-0.74,9.77,0.0,-0.1875,4.3125
19.271084547042847,0.0,0.01,-0.3,-0.03,-0.73,9.47,0,0,0,0,0,0,185.99671074587422,202.17707423909815,98.45149964349653,-0.75,-0.03125,0.5625,-0.06359083078249646,-0.2516362461737447,-0.1875,-0.03,-0.74,9.77,0.0,-0.1875,4.3125
19.289828538894653,0.0,0.02,-0.34,-0.02,-0.73,9.450000000000001,0,0,0,0,0,0,185.65779791338127,191.29976346348926,-80.06425952639638,-0.75,-0.03125,0.5625,-0.001090830782496456,0.060863753826255314,0.125,-0.03,-0.74,9.77,0.0,-0.1875,4.3125
19.308788299560547,0.0,0.0,-0.32,-0.01,-0.72,9.450000000000001,0,0,0,0,0,0,187.10907182884972,185.8923580756848,97.17765180578877,-0.75,-0.03125,0.5625,-0.12609083078249644,0.12336375382625532,0.0,-0.03,-0.74,9.77,0.0,-0.1875,4.3125
19.327220678329468,0.0,0.01,-0.32,-0.01,-0.74,9.43,0,0,0,0,0,0,186.9710034824609,183.09490538178258,-78.78478020151364,-0.75,-0.03125,1.375,-0.06359083078249646,-0.06413624617374468,0.0625,-0.03,-0.74,9.77,0.0,-0.1875,12.3125
19.345383644104004,0.0,0.03,-0.34,-0.06,-0.72,9.44,0,0,0,0,0,0,185.30694907880405,181.78992903483146,-72.8952442602576,-0.75,-0.03125,1.375,-0.001090830782496456,0.12336375382625532,0.0,-0.03,-0.74,9.77,0.0,-0.1875,4.3125
19.36546277999878,-0.01,0.01,-0.31,-0.03,-0.71,9.43,0,0,0,0,0,0,186.010322218989,1.8420160539280195,-79.66832600659295,-0.75,-0.03125,1.375,-0.12609083078249644,-0.3141362461737447,0.0625,-0.03,-0.74,9.77,0.0,-0.1875,4.3125
19.384355306625366,0.01,0.0,-0.32,-0.03,-0.72,9.450000000000001,0,0,0,0,0,0,187.41033398165357,90.23727906678117,79.47929406100465,-1.125,-0.40625,1.0,0.12390916921750354,0.060863753826255314,0.1875,-0.03,-0.74,9.77,0.0,-0.1875,4.3125
19.404584407806396,0.0,0.0,-0.33,-0.03,-0.73,9.450000000000001,0,0,0,0,0,0,187.95408986298585,135.17361587733077,80.55339950099267,-1.125,-0.40625,1.0,-0.18859083078249644,-0.2516362461737447,0.125,-0.03,-0.74,9.77,0.0,-0.1875,4.3125
19.42478919029236,-0.01,0.0,-0.32,-0.04,-0.74,9.450000000000001,0,0,0,0,0,0,188.163467803652,338.69298958672863,81.03603782242027,-1.125,-0.40625,0.5625,-0.31359083078249644,0.060863753826255314,0.0,-0.03,-0.74,9.77,0.0,-0.1875,4.3125
19.443626403808594,0.0,0.02,-0.32,-0.03,-0.73,9.46,0,0,0,0,0,0,186.4487395864864,259.4639711373045,82.4689175490885,-1.125,-0.40625,0.5625,-0.37609083078249644,-0.1266362461737447,-0.0625,-0.03,-0.74,9.77,0.0,-0.1875,4.3125
19.46369194984436,-0.01,0.02,-0.32,-0.04,-0.71,9.450000000000001,0,0,0,0,0,0,185.81099570464292,40.86767549190425,82.09414829364462,-1.125,-0.40625,0.5625,0.06140916921750354,0.12336375382625532,0.0,-0.03,-0.74,9.77,0.0,-0.1875,4.3125
19.48115849494934,0.0,0.0,-0.32,-0.03,-0.73,9.450000000000001,0,0,0,0,0,0,187.21692072448053,110.55131408989232,97.28550070141958,-0.75,-0.03125,1.8125,-0.06359083078249646,-0.1266362461737447,0.0625,-0.03,-0.74,9.77,0.0,-0.1875,4.3125
19.500189304351807,0.0,0.0,-0.32,-0.04,-0.71,9.42,0,0,0,0,0,0,187.88863323439932,145.42438338888633,97.95721321133843,-0.75,-0.03125,1.8125,-0.12609083078249644,-0.06413624617374468,0.0625,-0.03,-0.74,9.77,0.0,-0.1875,4.3125
19.519284963607788,0.0,0.0,-0.31,-0.04,-0.73,9.48,0,0,0,0,0,0,188.19323948935875,162.95466803838335,98.2618194662978,-0.75,-0.03125,1.8125,-0.18859083078249644,0.12336375382625532,0.0,-0.03,-0.74,9.77,0.0,-0.1875,4.3125
19.536502599716187,0.0,0.0,-0.34,-0.03,-0.71,9.44,0,0,0,0,0,0,188.47054261683843,171.71981036313184,57.1439418592976,-0.75,-0.71875,0.1875,0.06140916921750354,0.12336375382625532,0.125,-0.03,-0.74,9.77,0.0,-0.1875,4.3125
19.556291580200195,0.0,0.02,-0.31,-0.01,-0.72,9.44,0,0,0,0,0,0,186.57600118735263,175.9148815255061,57.64009896888919,-0.75,-0.71875,0.1875,-0.31359083078249644,-0.2516362461737447,0.0625,-0.03,-0.74,9.77,0.0,-0.1875,4.3125
19.576562881469727,0.0,0.01,-0.31,-0.03,-0.73,9.49,0,0,0,0,0,0,186.6131183328381,178.01241710669325,42.51423698063874,-0.4375,-0.71875,1.0,-0.18859083078249644,-0.2516362461737447,0.0,-0.03,-0.74,9.77,0.0,-0.1875,4.3125
19.59485363960266,0.0,0.01,-0.33,-0.04,-0.72,9.44,0,0,0,0,0,0,186.71887974411393,179.0924348972868,42.48864140732823,-0.4375,-0.71875,1.0,-0.12609083078249644,-0.1891362461737447,-0.0625,-0.03,-0.74,9.77,0.0,-0.1875,4.3125
19.614819049835205,0.0,0.03,-0.33,-0.02,-0.71,9.44,0,0,0,0,0,0,185.07364829034864,179.7574437925836,45.1061049619683,-0.4375,-0.71875,1.0,-0.06359083078249646,0.060863753826255314,0.0,-0.03,-0.74,9.77,0.0,-0.1875,4.3125
19.633547067642212,0.0,0.01,-0.32,-0.03,-0.72,9.450000000000001,0,0,0,0,0,0,185.98454171321038,180.183698240232,81.4460634786225,-1.125,-0.40625,1.375,-0.001090830782496456,0.2483637538262553,0.0,-0.03,-0.74,9.77,0.0,-0.1875,4.3125
19.65305757522583,0.0,0.02,-0.31,-0.03,-0.71,9.46,0,0,0,0,0,0,185.52050073553863,180.30307546405618,84.08965118742984,-1.125,-0.40625,1.375,0.06140916921750354,0.060863753826255314,0.0625,-0.03,-0.74,9.77,0.0,-0.1875,4.3125
19.672340154647827,0.0,0.01,-0.32,-0.05,-0.72,9.43,0,0,0,0,0,0,186.23921793580536,180.39401407596827,57.58243321765386,-0.75,-0.71875,1.375,0.06140916921750354,0.12336375382625532,0.0,-0.03,-0.74,9.77,0.0,-0.1875,4.3125
19.68790578842163,-0.01,0.01,-0.36,,,,0,0,0,0,0,0,186.72951830227865,1.1409969197074181,59.189034045676095,-0.75,-0.71875,1.375,0.12390916921750354,-0.06413624617374468,0.0625,-0.03,-0.74,9.77,0.0,-0.1875,4.3125
19.706231594085693,0.0,0.02,-0.32,-0.01,-0.73,9.450000000000001,0,0,0,0,0,0,185.7942648357997,90.68797480379389,59.93599484954535,-0.75,-0.71875,1.375,-0.25109083078249644,-0.1266362461737447,0.0,-0.03,-0.74,9.77,0.0,-0.1875,4.3125
19.726438999176025,0.0,0.01,-0.3,-0.02,-0.73,9.47,0,0,0,0,0,0,186.34772907356074,135.61771374583714,-78.0173587097019,-0.75,-0.03125,1.8125,0.12390916921750354,0.1858637538262553,0.0625,-0.03,-0.74,9.77,0.0,-0.1875,4.3125
19.744877576828003,0.01,0.01,-0.36,-0.01,-0.72,9.4,0,0,0,0,0,0,186.65877387115634,157.16231967907567,-78.52954355573833,-0.75,-0.03125,1.8125,-0.12609083078249644,-0.06413624617374468,0.0625,-0.03,-0.74,9.77,0.0,-0.1875,4.3125
19.76492476463318,0.0,0.01,-0.33,-0.02,-0.72,9.44,0,0,0,0,0,0,186.86670751327307,168.72988618347802,-78.00376659912448,-0.75,-0.03125,1.8125,0.12390916921750354,-0.06413624617374468,0.125,-0.03,-0.74,9.77,0.0,-0.1875,4.3125
19.782145261764526,-0.02,0.01,-0.31,-0.04,-0.72,9.46,0,0,0,0,0,0,186.854136781754,356.32715553059535,73.94574080501556,-0.75,-0.40625,0.5625,-0.001090830782496456,-0.1266362461737447,0.0,-0.03,-0.74,9.77,0.0,-0.1875,4.3125
19.80062246322632,0.0,0.01,-0.32,-0.03,-0.74,9.42,0,0,0,0,0,0,186.90603595891304,268.37480410923786,72.8724288164083,-0.75,-0.40625,0.5625,0.06140916921750354,0.060863753826255314,0.125,-0.03,-0.74,9.77,0.0,-0.1875,4.3125
19.819313764572144,0.0,0.0,-0.32,-0.01,-0.75,9.43,0,0,0,0,0,0,187.76444085161557,224.4298783985591,71.77603623458012,-0.75,-0.40625,0.5625,-0.06359083078249646,0.12336375382625532,0.0,-0.03,-0.74,9.77,0.0,-0.1875,4.3125
19.837260007858276,0.0,0.01,-0.31,-0.03,-0.75,9.46,0,0,0,0,0,0,187.33233816496954,202.33241554321972,-48.98845135359808,-0.75,0.40625,1.0,0.06140916921750354,-0.1266362461737447,0.125,-0.03,-0.74,9.77,0.0,-0.1875,4.3125
19.857344388961792,-0.01,0.02,-0.32,-0.04,-0.72,9.44,0,0,0,0,0,0,186.3152949938845,12.270647694861864,-48.488199025017664,-0.75,0.40625,1.0,0.18640916921750356,0.060863753826255314,0.0,-0.03,-0.74,9.77,0.0,-0.1875,4.3125
19.87766933441162,0.0,0.01,-0.31,-0.03,-0.73,9.450000000000001,0,0,0,0,0,0,186.451515236104,96.15905019137112,9.829844376429179,0.0,-0.71875,0.1875,-0.25109083078249644,-0.3141362461737447,0.125,-0.03,-0.74,9.77,0.0,-0.1875,4.3125
19.897682428359985,0.0,0.02,-0.32,-0.04,-0.72,9.43,0,0,0,0,0,0,185.8740133027124,138.16575143962575,10.116704497538962,0.0,-0.71875,0.1875,0.18640916921750356,-0.1891362461737447,0.125,-0.03,-0.74,9.77,0.0,-0.1875,4.3125
19.91770648956299,0.0,0.01,-0.31,-0.05,-0.71,9.47,0,0,0,0,0,0,186.38712439051795,159.32535206375306,9.765453530843132,0.0,-0.71875,0.1875,0.06140916921750354,0.12336375382625532,-0.0625,-0.03,-0.74,9.77,0.0,-0.1875,4.3125
19.93631935119629,0.0,0.0,-0.3,-0.02,-0.72,9.43,0,0,0,0,0,0,187.47373506741803,169.71765237581673,98.33711880355136,-1.125,-0.03125,0.5625,-0.12609083078249644,-0.2516362461737447,0.0625,-0.03,-0.74,9.77,0.0,-0.1875,4.3125
19.956260919570923,0.0,0.02,-0.28,-0.02,-0.72,9.43,0,0,0,0,0,0,186.06798201588066,174.94505253184855,-78.98112225389342,-1.125,-0.03125,0.5625,0.06140916921750354,-0.1891362461737447,0.0,-0.03,-0.74,9.77,0.0,-0.1875,4.3125
19.976539134979248,0.01,0.01,-0.32,-0.01,-0.72,9.450000000000001,0,0,0,0,0,0,186.5133949622279,176.78923369199296,56.10812557501171,-0.75,-0.71875,1.0,0.06140916921750354,0.060863753826255314,0.0,-0.03,-0.74,9.77,0.0,-0.1875,4.3125
19.994275093078613,-0.01,0.03,-0.3,-0.04,-0.7000000000000001,9.47,0,0,0,0,0,0,184.68314827274583,359.5869355060053,61.879452698974404,-0.75,-0.71875,1.0,-0.12609083078249644,0.12336375382625532,0.0,-0.03,-0.74,9.77,0.0,-0.1875,4.3125
20.013370990753174,-0.01,0.01,-0.32,-0.04,-0.73,9.450000000000001,0,0,0,0,0,0,185.7584780906605,90.77421301481434,57.783485645072545,-0.75,-0.71875,1.0,-0.06359083078249646,-0.1891362461737447,0.0625,-0.03,-0.74,9.77,0.0,-0.1875,4.3125
20.030941486358643,0.0,0.0,-0.32,-0.03,-0.72,9.5,0,0,0,0,0,0,187.2219119174893,135.50458285134735,71.23350730045385,-0.75,-0.40625,1.0,-0.001090830782496456,-0.1266362461737447,0.125,-0.03,-0.74,9.77,0.0,-0.1875,4.3125
20.049421787261963,-0.02,0.02,-0.33,-0.03,-0.74,9.44,0,0,0,0,0,0,186.2539325068728,339.6944640936448,77.37143880725168,-0.75,-0.40625,1.0,0.06140916921750354,0.060863753826255314,0.1875,-0.03,-0.74,9.77,0.0,-0.1875,4.3125
20.06894540786743,0.01,0.02,-0.29,-0.03,-0.71,9.47,0,0,0,0,0,0,185.5294640358656,259.0420795113893,74.72885819880796,-0.75,-0.40625,1.0,0.06140916921750354,-0.001636246173744684,-0.0625,-0.03,-0.74,9.77,0.0,-0.1875,4.3125
20.08692479133606,0.0,0.03,-0.32,-0.04,-0.71,9.49,0,0,0,0,0,0,184.42949236866428,219.76351609963484,-70.0073513826406,-0.75,-0.03125,1.8125,-0.001090830782496456,0.12336375382625532,-0.0625,-0.03,-0.74,9.77,0.0,-0.1875,4.3125
20.106843948364258,0.0,0.0,-0.3,-0.04,-0.73,9.46,0,0,0,0,0,0,186.5574190564912,200.1242343937576,96.6259990334303,-0.75,-0.03125,1.8125,-0.001090830782496456,0.12336375382625532,0.0,-0.03,-0.74,9.77,0.0,-0.1875,4.3125
20.127114295959473,0.0,0.01,-0.33,-0.03,-0.73,9.44,0,0,0,0,0,0,186.90978010594048,190.24209354081898,-79.62322397258875,0.375,-0.03125,1.0,0.31140916921750356,-0.001636246173744684,0.0625,-0.03,-0.74,9.77,0.0,-0.1875,4.3125
20.145220518112183,0.0,0.02,-0.32,-0.03,-0.72,9.450000000000001,0,0,0,0,0,0,185.97814573763065,185.30102311434968,95.4664294926121,0.375,-0.03125,1.0,-0.06359083078249646,-0.001636246173744684,0.0,-0.03,-0.74,9.77,0.0,-0.1875,4.3125
20.164777994155884,0.0,0.02,-0.31,-0.02,-0.71,9.46,0,0,0,0,0,0,185.48605274774877,182.83048790111502,94.72731246160774,0.375,-0.03125,1.0,-0.001090830782496456,-0.001636246173744684,0.0625,-0.03,-0.74,9.77,0.0,-0.1875,4.3125
20.182056427001953,0.0,0.0,-0.33,-0.04,-0.7000000000000001,9.47,0,0,0,0,0,0,187.02319924603347,181.5639702944977,40.80641612116548,-0.4375,-0.71875,0.5625,-0.12609083078249644,-0.06413624617374468,0.125,-0.03,-0.74,9.77,0.0,-0.1875,4.3125
20.20010542869568,-0.01,0.02,-0.31,-0.04,-0.72,9.450000000000001,0,0,0,0,0,0,186.04078640025966,1.915101338230655,44.19169193868649,-0.4375,-0.71875,0.5625,0.06140916921750354,0.060863753826255314,-0.0625,-0.03,-0.74,9.77,0.0,-0.1875,4.3125
20.219429969787598,0.0,0.02,-0.3,-0.02,-0.73,9.450000000000001,0,0,0,0,0,0,185.3622786551437,91.16877701305552,42.49028142693405,-0.4375,-0.71875,0.5625,-0.18859083078249644,0.060863753826255314,-0.0625,-0.03,-0.74,9.77,0.0,-0.1875,4.3125
20.2378830909729,0.0,0.01,-0.32,-0.03,-0.71,9.44,0,0,0,0,0,0,186.0351068956079,135.85811485046793,9.38458620705876,0.0,-0.40625,1.8125,-0.18859083078249644,0.1858637538262553,-0.125,-0.03,-0.74,9.77,0.0,-0.1875,4.3125
20.257978439331055,0.0,0.0,-0.32,-0.02,-0.73,9.43,0,0,0,0,0,0,187.39147631996303,158.20278376917415,9.846000327290852,0.0,-0.40625,1.8125,0.06140916921750354,0.1858637538262553,0.0625,-0.03,-0.74,9.77,0.0,-0.1875,4.3125
20.277918815612793,0.0,0.0,-0.33,-0.03,-0.75,9.44,0,0,0,0,0,0,187.97591103214057,169.28136822852724,10.430435039468506,0.0,0.40625,1.8125,-0.12609083078249644,-0.001636246173744684,0.0,-0.03,-0.74,9.77,0.0,-0.1875,4.3125
20.29526114463806,0.0,0.0,-0.32,-0.03,-0.74,9.450000000000001,0,0,0,0,0,0,188.33062838822934,174.8519104582038,10.785152395557276,0.0,0.40625,1.8125,-0.001090830782496456,0.060863753826255314,0.0625,-0.03,-0.74,9.77,0.0,-0.1875,4.3125
20.314205646514893,0.0,0.0,-0.33,-0.01,-0.7000000000000001,9.48,0,0,0,0,0,0,188.53923706627376,177.48093157304208,10.99376107360169,0.0,0.40625,1.8125,0.06140916921750354,-0.2516362461737447,-0.0625,-0.03,-0.74,9.77,0.0,-0.1875,4.3125
20.331707000732422,-0.01,0.0,-0.3,-0.03,-0.72,9.44,0,0,0,0,0,0,188.64354140529593,359.8750183469594,72.44049662616644,-0.75,-0.40625,-0.1875,0.06140916921750354,-0.001636246173744684,0.0,-0.03,-0.74,9.77,0.0,-0.1875,4.3125
20.350212574005127,0.0,0.0,-0.33,-0.03,-0.73,9.44,0,0,0,0,0,0,188.66444357480702,270.0549855174199,72.67603895777157,-0.75,-0.40625,-0.1875,-0.001090830782496456,-0.1266362461737447,0.125,-0.03,-0.74,9.77,0.0,-0.1875,4.3125
20.36969017982483,0.0,-0.01,-0.31,-0.01,-0.71,9.46,0,0,0,0,0,0,9.504949792559877,225.11371910265012,72.96356512899095,-0.75,-0.40625,-0.1875,-0.18859083078249644,-0.1891362461737447,0.0625,-0.03,-0.74,9.77,0.0,-0.1875,4.3125
20.38832116127014,0.01,0.0,-0.34,-0.02,-0.72,9.43,0,0,0,0,0,0,99.12639776843899,201.7694937363171,-18.22257474373407,-0.75,-0.40625,1.375,0.06140916921750354,-0.2516362461737447,0.0625,-0.03,-0.74,9.77,0.0,-0.1875,4.3125
20.40846610069275,0.0,0.04,-0.32,-0.05,-0.71,9.44,0,0,0,0,0,0,140.34336358192766,191.15847321209873,39.13242053305876,-0.75,-0.40625,1.375,-0.001090830782496456,0.1858637538262553,0.125,-0.03,-0.74,9.77,0.0,-0.1875,4.3125
20.428589582443237,-0.01,0.03,-0.31,-0.04,-0.71,9.46,0,0,0,0,0,0,161.75201253987098,6.647475358246338,-95.7590928554381,-0.75,-0.03125,1.375,-0.001090830782496456,-0.06413624617374468,-0.0625,-0.03,-0.74,9.77,0.0,-0.1875,4.3125
20.44725513458252,0.0,0.0,-0.36,-0.03,-0.74,9.4,0,0,0,0,0,0,175.34367914209457,93.59746402306335,85.41225911903362,-0.75,-0.03125,1.375,0.24890916921750356,0.1858637538262553,-0.0625,-0.03,-0.74,9.77,0.0,-0.1875,4.3125
20.46731424331665,0.0,0.01,-0.31,-0.02,-0.73,9.46,0,0,0,0,0,0,181.05945731020904,136.91620835547187,-84.56169980145127,-0.75,-0.03125,1.375,-0.06359083078249646,-0.1266362461737447,0.125,-0.03,-0.74,9.77,0.0,-0.1875,4.3125
20.484499216079712,-0.01,0.0,-0.3,-0.04,-0.75,9.47,0,0,0,0,0,0,184.8724015272636,339.4676567381743,52.95840522499563,-1.125,-1.09375,-0.1875,-0.001090830782496456,-0.2516362461737447,0.0625,-0.03,-0.74,9.77,0.0,-0.1875,4.3125
20.507676362991333,0.0,0.01,-0.32,-0.03,-0.73,9.450000000000001,0,0,0,0,0,0,185.85266833166784,259.97630471302733,54.87004349181589,-1.125,-1.09375,-0.1875,-0.06359083078249646,0.12336375382625532,0.0625,-0.03,-0.74,9.77,0.0,-0.1875,4.3125
20.52775812149048,0.0,0.02,-0.3,-0.03,-0.72,9.47,0,0,0,0,0,0,185.33071962084782,220.10562870045385,86.96350845518933,-1.5,-0.40625,1.0,-0.06359083078249646,-0.1266362461737447,0.0625,-0.03,-0.74,9.77,0.0,-0.1875,4.3125
20.545196771621704,-0.01,0.01,-0.32,-0.02,-0.72,9.46,0,0,0,0,0,0,186.14476376471148,21.1273096120386,85.73564400346302,-1.5,-0.40625,1.0,0.06140916921750354,-0.001636246173744684,0.125,-0.03,-0.74,9.77,0.0,-0.1875,4.3125
20.563682556152344,0.01,0.01,-0.33,-0.04,-0.74,9.47,0,0,0,0,0,0,186.64135040537923,99.9074268008239,85.61106620343898,-1.5,-0.40625,1.0,0.18640916921750356,0.060863753826255314,0.0,-0.03,-0.74,9.77,0.0,-0.1875,4.3125
20.58197855949402,0.01,0.01,-0.33,-0.03,-0.74,9.44,0,0,0,0,0,0,186.85839372571309,139.23498539521654,98.24431530479214,-0.4375,-0.03125,0.5625,0.12390916921750354,-0.06413624617374468,0.0,-0.03,-0.74,9.77,0.0,-0.1875,4.3125
20.599843502044678,0.01,0.02,-0.34,-0.02,-0.72,9.44,0,0,0,0,0,0,186.08936529983666,158.95657961534442,-79.52567764568637,-0.4375,-0.03125,0.5625,-0.001090830782496456,-0.001636246173744684,0.0,-0.03,-0.74,9.77,0.0,-0.1875,4.3125
20.61943221092224,-0.02,0.01,-0.31,-0.05,-0.73,9.46,0,0,0,0,0,0,186.43421567503577,351.5030022465285,99.81026136160474,-2048.4375,-0.03125,0.5625,-0.06359083078249646,-0.001636246173744684,0.0,-0.03,-0.74,9.77,0.0,-0.1875,4.3125
20.637768507003784,0.0,0.01,-0.31,-0.03,-0.72,9.46,0,0,0,0,0,0,186.57347557667964,265.99397746720445,-79.0476815349807,0.75,-0.03125,0.5625,-0.12609083078249644,0.12336375382625532,0.0,-0.03,-0.74,9.77,0.0,-0.1875,4.3125
20.656951665878296,0.0,0.0,-0.32,-0.03,-0.74,9.450000000000001,0,0,0,0,0,0,187.56691066049888,223.0832150775424,-77.59262130178443,0.75,-0.03125,0.5625,-0.12609083078249644,-0.1891362461737447,-0.0625,-0.03,-0.74,9.77,0.0,-0.1875,4.3125
20.675312757492065,0.0,0.0,-0.33,-0.03,-0.73,9.47,0,0,0,0,0,0,188.0323782024085,201.5653338827114,-77.12715375987482,0.75,-0.03125,0.5625,-0.18859083078249644,-0.3141362461737447,0.0625,-0.03,-0.74,9.77,0.0,-0.1875,4.3125
20.69144320487976,-0.01,0.01,-0.32,-0.02,-0.74,9.48,0,0,0,0,0,0,187.43309305549184,11.794662203167377,20.03844761725216,0.0,-0.40625,1.8125,-0.06359083078249646,-0.1266362461737447,0.0,-0.03,-0.74,9.77,0.0,-0.1875,4.3125
20.71099829673767,0.0,0.01,-0.32,-0.02,-0.72,9.47,0,0,0,0,0,0,187.22676409578196,96.04605744552387,10.576243407232823,0.0,-0.40625,1.8125,0.12390916921750354,-0.06413624617374468,0.0625,-0.03,-0.74,9.77,0.0,-0.1875,4.3125
20.73113775253296,-0.01,0.02,-0.32,-0.03,-0.73,9.46,0,0,0,0,0,0,186.2625079592907,319.15871864601394,-35.949186388803554,0.75,-0.71875,0.1875,0.18640916921750356,0.12336375382625532,0.125,-0.03,-0.74,9.77,0.0,-0.1875,4.3125
20.749464988708496,0.0,0.0,-0.32,-0.02,-0.73,9.43,0,0,0,0,0,0,187.53642685180444,249.75933566694715,-36.22792437599904,0.75,-0.71875,0.1875,0.12390916921750354,-0.001636246173744684,0.1875,-0.03,-0.74,9.77,0.0,-0.1875,4.3125
20.769479990005493,0.0,0.0,-0.3,-0.03,-0.73,9.47,0,0,0,0,0,0,188.1733862980613,215.15339417741376,-35.59096492974217,0.75,-0.71875,0.1875,0.12390916921750354,0.1858637538262553,0.0625,-0.03,-0.74,9.77,0.0,-0.1875,4.3125
20.786746740341187,0.0,0.01,-0.32,-0.03,-0.72,9.450000000000001,0,0,0,0,0,0,187.5656607170667,197.69417343264706,73.53205357456196,-0.75,-0.40625,0.5625,0.06140916921750354,-0.1266362461737447,0.0625,-0.03,-0.74,9.77,0.0,-0.1875,4.3125
20.805591344833374,0.0,0.01,-0.32,-0.03,-0.71,9.43,0,0,0,0,0,0,187.1992979265694,189.0270630602637,73.16569078406465,-0.75,-0.40625,0.5625,-0.06359083078249646,-0.001636246173744684,0.125,-0.03,-0.74,9.77,0.0,-0.1875,4.3125
20.824336051940918,-0.02,0.01,-0.29,-0.04,-0.73,9.43,0,0,0,0,0,0,186.95719295607051,6.7586829638018875,74.255130946663,-0.75,-0.40625,0.5625,-0.001090830782496456,0.1858637538262553,-0.0625,-0.03,-0.74,9.77,0.0,-0.1875,4.3125
20.841645002365112,0.0,0.0,-0.34,-0.02,-0.73,9.48,0,0,0,0,0,0,187.8837693501943,93.62181782584113,56.55716859265348,-0.75,-0.71875,1.0,0.12390916921750354,0.12336375382625532,-0.0625,-0.03,-0.74,9.77,0.0,-0.1875,4.3125
20.861605405807495,0.0,0.02,-0.32,-0.03,-0.72,9.450000000000001,0,0,0,0,0,0,186.43389035975756,137.05338525686074,59.545998910456575,-0.75,-0.71875,1.0,-0.12609083078249644,0.12336375382625532,-0.0625,-0.03,-0.74,9.77,0.0,-0.1875,4.3125
20.881757259368896,0.0,0.02,-0.34,-0.02,-0.73,9.44,0,0,0,0,0,0,185.81388772032295,158.73791897237055,94.44126223234312,-0.4375,-0.03125,-0.1875,-0.12609083078249644,0.060863753826255314,0.0625,-0.03,-0.74,9.77,0.0,-0.1875,4.3125
20.900102615356445,-0.01,0.0,-0.28,-0.04,-0.71,9.46,0,0,0,0,0,0,187.12461673232053,350.4466400745691,95.4276011462625,-0.4375,-0.03125,-0.1875,-0.25109083078249644,-0.2516362461737447,-0.1875,-0.03,-0.74,9.77,0.0,-0.1875,4.3125
20.920112371444702,-0.01,0.01,-0.34,-0.04,-0.72,9.43,0,0,0,0,0,0,187.00050296832597,86.2765246512181,95.43316059769163,-0.4375,-0.03125,-0.1875,-0.12609083078249644,0.060863753826255314,-0.1875,-0.03,-0.74,9.77,0.0,-0.1875,4.3125
20.938588857650757,0.0,0.0,-0.32,-0.03,-0.75,9.450000000000001,0,0,0,0,0,0,187.78042435632204,133.47448866954923,10.23494836364992,0.0,0.40625,1.0,-0.12609083078249644,0.3108637538262553,-0.0625,-0.03,-0.74,9.77,0.0,-0.1875,4.3125
20.958112716674805,0.0,0.0,-0.32,-0.03,-0.74,9.450000000000001,0,0,0,0,0,0,188.13913505032008,156.88597067871478,10.593659057647955,0.0,0.40625,1.0,-0.18859083078249644,-0.06413624617374468,-0.0625,-0.03,-0.74,9.77,0.0,-0.1875,4.3125
20.977038621902466,0.0,0.0,-0.29,-0.03,-0.73,9.46,0,0,0,0,0,0,188.38099039731912,168.56046168329758,10.835514404647,0.0,0.40625,1.0,-0.06359083078249646,-0.1266362461737447,0.0625,-0.03,-0.74,9.77,0.0,-0.1875,4.3125
20.99302887916565,-0.01,0.02,-0.33,-0.05,-0.73,9.47,0,0,0,0,0,0,186.70609714850343,355.23272097525927,14.755058483811894,0.0,-0.71875,1.375,-0.18859083078249644,-0.1891362461737447,0.125,-0.03,-0.74,9.77,0.0,-0.1875,4.3125
21.01265048980713,0.0,0.0,-0.31,-0.02,-0.73,9.46,0,0,0,0,0,0,187.6957214464108,267.8275868315698,10.150245453738648,0.0,-0.71875,1.375,-0.001090830782496456,0.060863753826255314,0.0625,-0.03,-0.74,9.77,0.0,-0.1875,4.3125
21.032439708709717,0.0,0.02,-0.32,-0.03,-0.73,9.46,0,0,0,0,0,0,186.4023664078658,223.9687697597251,81.35442466981081,-1.125,-0.40625,0.1875,-0.001090830782496456,-0.2516362461737447,-0.0625,-0.03,-0.74,9.77,0.0,-0.1875,4.3125
21.05084466934204,-0.01,0.0,-0.31,-0.02,-0.72,9.43,0,0,0,0,0,0,187.45010607609197,23.05691635680003,80.13787418018731,-1.125,-0.40625,0.1875,-0.18859083078249644,-0.06413624617374468,0.0,-0.03,-0.74,9.77,0.0,-0.1875,4.3125
21.07067847251892,0.0,0.0,-0.3,-0.03,-0.73,9.47,0,0,0,0,0,0,188.06772591020507,101.6459345223402,80.66703554821189,-1.125,-0.40625,0.1875,-0.001090830782496456,-0.1266362461737447,0.0,-0.03,-0.74,9.77,0.0,-0.1875,4.3125
21.09068727493286,-0.01,0.02,-0.32,-0.05,-0.7000000000000001,9.42,0,0,0,0,0,0,186.62048886650226,322.0524071844221,80.93783316320096,-0.75,-0.40625,1.8125,0.06140916921750354,0.3108637538262553,0.0625,-0.03,-0.74,9.77,0.0,-0.1875,4.3125
21.110995292663574,-0.01,0.02,-0.31,-0.03,-0.71,9.44,0,0,0,0,0,0,185.68318121049407,72.03431978319287,80.33033589358246,-0.75,-0.40625,1.8125,-0.25109083078249644,-0.1891362461737447,0.0625,-0.03,-0.74,9.77,0.0,-0.1875,4.3125
21.131162405014038,-0.01,0.0,-0.32,-0.04,-0.74,9.450000000000001,0,0,0,0,0,0,187.1842634774061,307.24834153965963,74.28496255292842,-1.5,-0.71875,0.5625,-0.001090830782496456,0.3108637538262553,0.0625,-0.03,-0.74,9.77,0.0,-0.1875,4.3125
21.14958119392395,-0.01,0.0,-0.33,-0.04,-0.74,9.44,0,0,0,0,0,0,187.8410546108621,64.54699940823419,74.93461501313382,-1.5,-0.71875,0.5625,-0.18859083078249644,-0.2516362461737447,-0.0625,-0.03,-0.74,9.77,0.0,-0.1875,4.3125
21.16911005973816,0.01,0.01,-0.33,-0.01,-0.72,9.44,0,0,0,0,0,0,187.36449582845455,121.64852169892168,75.35403207735189,-1.5,-0.71875,0.5625,-0.06359083078249646,0.12336375382625532,0.0,-0.03,-0.74,9.77,0.0,-0.1875,4.3125
21.186200857162476,-0.03,0.02,-0.31,-0.03,-0.74,9.450000000000001,0,0,0,0,0,0,186.15653667553306,333.6685587025411,-20.76079156305255,0.75,-1.09375,1.375,-0.06359083078249646,-0.1891362461737447,0.0,-0.03,-0.74,9.77,0.0,-0.1875,4.3125
21.204797983169556,-0.01,0.0,-0.34,-0.03,-0.74,9.44,0,0,0,0,0,0,187.48344120992562,77.88784785415886,-23.02379314601521,0.75,-1.09375,1.375,0.12390916921750354,0.060863753826255314,0.0,-0.03,-0.74,9.77,0.0,-0.1875,4.3125
21.22393488883972,0.0,0.01,-0.29,-0.03,-0.74,9.450000000000001,0,0,0,0,0,0,187.1281764716809,129.1239002710196,-25.078409240514844,0.75,-1.09375,1.375,0.06140916921750354,-0.001636246173744684,-0.0625,-0.03,-0.74,9.77,0.0,-0.1875,4.3125
21.242075204849243,-0.03,0.0,-0.33,-0.02,-0.74,9.46,0,0,0,0,0,0,187.8442611079995,337.30789093331737,76.26522442660766,-0.75,-0.40625,1.8125,-0.12609083078249644,-0.06413624617374468,-0.125,-0.03,-0.74,9.77,0.0,-0.1875,4.3125
21.26206636428833,0.0,0.02,-0.31,-0.03,-0.74,9.43,0,0,0,0,0,0,186.35661043293317,258.80267181059884,79.6024985644361,-0.75,-0.40625,1.8125,-0.12609083078249644,-0.06413624617374468,-0.0625,-0.03,-0.74,9.77,0.0,-0.1875,4.3125
21.282175540924072,0.0,0.02,-0.31,-0.03,-0.72,9.46,0,0,0,0,0,0,185.6127850954,219.6125622492396,9.913002095953487,0.0,-0.40625,1.0,-0.12609083078249644,0.060863753826255314,0.125,-0.03,-0.74,9.77,0.0,-0.1875,4.3125
21.299692630767822,0.0,0.03,-0.34,-0.03,-0.71,9.43,0,0,0,0,0,0,184.6278398852736,200.14250746855998,9.603589427186904,0.0,-0.40625,1.0,-0.001090830782496456,0.3108637538262553,-0.0625,-0.03,-0.74,9.77,0.0,-0.1875,4.3125
21.318766117095947,0.01,0.01,-0.29,-0.01,-0.72,9.48,0,0,0,0,0,0,185.60721190131932,189.20184916474363,3.682262352189781,0.0,-0.40625,1.0,-0.12609083078249644,-0.1266362461737447,0.0625,-0.03,-0.74,9.77,0.0,-0.1875,4.3125
21.336228370666504,0.0,0.01,-0.29,-0.01,-0.71,9.47,0,0,0,0,0,0,186.15881181737774,184.780900926312,-54.843745587610314,0.75,-0.40625,1.375,-0.001090830782496456,-0.001636246173744684,-0.125,-0.03,-0.74,9.77,0.0,-0.1875,4.3125
21.355186223983765,0.0,0.0,-0.32,-0.02,-0.72,9.44,0,0,0,0,0,0,187.48457878084793,182.66417680709617,9.918124609304044,0.75,-2048.40625,1.375,0.12390916921750354,0.1858637538262553,0.125,-0.03,-0.74,9.77,0.0,-0.1875,4.3125
21.374272108078003,-0.01,0.0,-0.32,-0.01,-0.74,9.450000000000001,0,0,0,0,0,0,188.08496226258302,2.3132700516112967,-49.567376733088494,0.75,-0.40625,1.375,-0.001090830782496456,-0.1891362461737447,-0.0625,-0.03,-0.74,9.77,0.0,-0.1875,4.3125
21.392738342285156,0.0,0.0,-0.33,-0.04,-0.71,9.44,0,0,0,0,0,0,188.44765400345057,91.43036136974584,96.81656123080361,-0.4375,-0.03125,0.5625,0.12390916921750354,0.1858637538262553,0.0,-0.03,-0.74,9.77,0.0,-0.1875,4.3125
21.412694215774536,0.0,0.01,-0.31,-0.03,-0.73,9.46,0,0,0,0,0,0,187.64269474088707,135.89515702881312,99.30619531303378,-0.4375,-0.03125,0.5625,-0.001090830782496456,-0.001636246173744684,-0.125,-0.03,-0.74,9.77,0.0,-0.1875,4.3125
21.43295168876648,-0.02,0.01,-0.34,-0.05,-0.72,9.43,0,0,0,0,0,0,187.32313081639856,339.8100592935257,19.57456787913904,0.0,-0.40625,1.0,-0.001090830782496456,-0.001636246173744684,0.0,-0.03,-0.74,9.77,0.0,-0.1875,4.3125
21.451342821121216,0.0,0.01,-0.31,-0.02,-0.72,9.46,0,0,0,0,0,0,187.08043314736105,260.116255990703,10.458762287686199,0.0,-0.40625,1.0,-0.001090830782496456,0.060863753826255314,-0.0625,-0.03,-0.74,9.77,0.0,-0.1875,4.3125
21.471485137939453,0.0,0.0,-0.29,-0.03,-0.74,9.48,0,0,0,0,0,0,187.8516394458396,220.33185433929168,10.306163453167443,0.0,-0.40625,1.0,-0.06359083078249646,0.1858637538262553,-0.0625,-0.03,-0.74,9.77,0.0,-0.1875,4.3125
21.48893904685974,-0.01,0.0,-0.31,-0.01,-0.72,9.44,0,0,0,0,0,0,188.33099259507887,21.425958646583325,75.26148248692397,-1.5,-0.71875,0.1875,0.12390916921750354,0.3108637538262553,0.0625,-0.03,-0.74,9.77,0.0,-0.1875,4.3125
21.507359981536865,-0.01,0.01,-0.33,-0.03,-0.73,9.450000000000001,0,0,0,0,0,0,187.67196482056292,281.7291600163674,75.66195527991539,-1.5,-0.71875,0.1875,0.06140916921750354,-0.06413624617374468,0.0,-0.03,-0.74,9.77,0.0,-0.1875,4.3125
21.52610158920288,0.01,0.01,-0.32,-0.04,-0.73,9.44,0,0,0,0,0,0,187.34663636456904,230.2125374342524,75.17828755283745,-1.5,-0.71875,0.1875,0.12390916921750354,0.12336375382625532,0.0,-0.03,-0.74,9.77,0.0,-0.1875,4.3125
21.543773412704468,0.0,0.0,-0.33,-0.03,-0.72,9.44,0,0,0,0,0,0,187.9847410544436,205.12999506106638,80.5840506924504,-1.125,-0.40625,0.5625,-0.06359083078249646,-0.3141362461737447,0.0,-0.03,-0.74,9.77,0.0,-0.1875,4.3125
21.563709497451782,-0.03,0.0,-0.31,-0.02,-0.73,9.47,0,0,0,0,0,0,188.33504339938088,15.50874395030145,81.70120523097947,-1.125,-0.40625,0.5625,-0.001090830782496456,-0.001636246173744684,-0.125,-0.03,-0.74,9.77,0.0,-0.1875,4.3125
21.583768129348755,0.0,0.01,-0.33,-0.02,-0.72,9.44,0,0,0,0,0,0,187.67359227738532,97.93434831909092,59.35240220680819,-0.4375,-0.40625,0.5625,0.06140916921750354,-0.001636246173744684,0.125,-0.03,-0.74,9.77,0.0,-0.1875,4.3125
21.601927757263184,0.0,0.0,-0.32,-0.03,-0.74,9.450000000000001,0,0,0,0,0,0,188.17946901085173,139.24090050348565,57.75508941484105,-0.4375,-0.40625,0.5625,-0.001090830782496456,0.1858637538262553,-0.0625,-0.03,-0.74,9.77,0.0,-0.1875,4.3125
21.62201762199402,0.0,0.02,-0.34,-0.02,-0.71,9.43,0,0,0,0,0,0,186.71792704587003,159.862926595683,60.4423060768074,-0.4375,-0.40625,0.5625,-0.06359083078249646,0.12336375382625532,-0.0625,-0.03,-0.74,9.77,0.0,-0.1875,4.3125
21.63945698738098,0.0,0.0,-0.34,-0.03,-0.72,9.47,0,0,0,0,0,0,187.70163639509408,170.0801896417817,10.156160402421989,0.0,-0.03125,-0.1875,-0.001090830782496456,-0.06413624617374468,0.0,-0.03,-0.74,9.77,0.0,-0.1875,4.3125
21.6579749584198,0.0,0.0,-0.34,0.0,-0.72,9.44,0,0,0,0,0,0,188.1934910697061,175.22007116483104,10.648015077034046,0.0,-0.03125,-0.1875,-0.001090830782496456,-0.001636246173744684,0.0,-0.03,-0.74,9.77,0.0,-0.1875,4.3125
21.676846265792847,0.0,0.0,-0.34,-0.03,-0.74,9.450000000000001,0,0,0,0,0,0,188.4394184070121,177.7900119263557,10.893942414340046,0.0,-0.03125,-0.1875,-0.001090830782496456,-0.001636246173744684,-0.0625,-0.03,-0.74,9.77,0.0,-0.1875,4.3125
21.695764541625977,0.0,0.0,-0.34,-0.03,-0.73,9.450000000000001,0,0,0,0,0,0,188.46863207566514,179.07498230711803,99.33201581179841,-1.125,-0.03125,0.1875,-0.18859083078249644,-0.001636246173744684,0.0,-0.03,-0.74,9.77,0.0,-0.1875,4.3125
21.71548819541931,0.0,-0.01,-0.3,-0.02,-0.73,9.47,0,0,0,0,0,0,9.594065126489816,179.7174674974992,99.18591945791658,-1.125,-0.03125,0.1875,0.12390916921750354,-0.001636246173744684,0.0,-0.03,-0.74,9.77,0.0,-0.1875,4.3125
21.735222578048706,-0.01,0.0,-0.31,-0.03,-0.73,9.46,0,0,0,0,0,0,99.13970543540395,0.993765225687084,-15.096968859725251,-0.75,-0.40625,1.8125,-0.001090830782496456,0.060863753826255314,-0.0625,-0.03,-0.74,9.77,0.0,-0.1875,4.3125
21.753650426864624,-0.01,0.0,-0.33,-0.03,-0.73,9.46,0,0,0,0,0,0,143.91252558986105,271.4822112512479,29.57612470003872,-0.75,-0.40625,1.8125,-0.001090830782496456,-0.1266362461737447,0.0,-0.03,-0.74,9.77,0.0,-0.1875,4.3125
21.77349281311035,0.0,0.0,-0.34,-0.03,-0.73,9.43,0,0,0,0,0,0,166.4239356670896,226.07733196956414,50.43553105005415,-0.75,-0.40625,1.8125,0.24890916921750356,0.3108637538262553,0.0,-0.03,-0.74,9.77,0.0,-0.1875,4.3125
21.79080557823181,-0.02,0.0,-0.3,-0.05,-0.73,9.47,0,0,0,0,0,0,177.4296407057039,25.00067974586743,22.20316412301449,-0.4375,-1.09375,0.1875,-0.25109083078249644,-0.2516362461737447,-0.0625,-0.03,-0.74,9.77,0.0,-0.1875,4.3125
21.80905055999756,0.0,0.02,-0.31,-0.05,-0.7000000000000001,9.42,0,0,0,0,0,0,181.2743002317854,102.8053162168739,27.637935533495607,-0.4375,-1.09375,0.1875,0.12390916921750354,0.2483637538262553,0.0,-0.03,-0.74,9.77,0.0,-0.1875,4.3125
21.827075958251953,0.0,0.0,-0.3,-0.03,-0.73,9.450000000000001,0,0,0,0,0,0,184.91732298805175,141.61388445237714,29.173256481731443,-0.4375,-1.09375,0.1875,-0.12609083078249644,0.060863753826255314,0.0,-0.03,-0.74,9.77,0.0,-0.1875,4.3125
21.84440803527832,0.0,0.0,-0.32,-0.02,-0.72,9.46,0,0,0,0,0,0,186.83258436618496,160.92441857012875,43.72609768231641,-0.75,-1.09375,0.5625,0.06140916921750354,-0.1266362461737447,0.0625,-0.03,-0.74,9.77,0.0,-0.1875,4.3125
21.863858461380005,0.0,0.01,-0.33,-0.03,-0.72,9.46,0,0,0,0,0,0,186.89111276078737,170.64218562900456,45.085731139548585,-0.75,-1.09375,0.5625,-0.001090830782496456,-0.001636246173744684,0.0,-0.03,-0.74,9.77,0.0,-0.1875,4.3125
21.88364052772522,0.0,0.0,-0.34,-0.02,-0.74,9.42,0,0,0,0,0,0,187.81947925255275,175.53231915844248,10.27400325988063,0.0,-0.71875,1.0,0.06140916921750354,0.060863753826255314,0.0,-0.03,-0.74,9.77,0.0,-0.1875,4.3125
21.900996685028076,0.0,0.0,-0.33,-0.02,-0.73,9.46,0,0,0,0,0,0,188.31491249843543,177.94613592316142,10.76943650576331,0.0,-0.71875,1.0,0.12390916921750354,-0.001636246173744684,0.0625,-0.03,-0.74,9.77,0.0,-0.1875,4.3125
21.91962218284607,-0.02,0.01,-0.34,-0.02,-0.72,9.44,0,0,0,0,0,0,187.65923969517274,0.7730487406998484,15.923449278633058,0.0,-0.71875,1.0,-0.001090830782496456,-0.1266362461737447,0.0625,-0.03,-0.74,9.77,0.0,-0.1875,4.3125
21.937845468521118,-0.02,0.02,-0.31,-0.02,-0.72,9.450000000000001,0,0,0,0,0,0,186.29916841450478,272.47087501953075,81.50191634782513,-1.125,-0.40625,0.1875,-0.06359083078249646,0.12336375382625532,0.0,-0.03,-0.74,9.77,0.0,-0.1875,4.3125
21.956470012664795,-0.01,0.03,-0.31,-0.04,-0.72,9.41,0,0,0,0,0,0,184.76116495615952,47.49117626196235,81.1298944461528,-1.125,-0.40625,0.1875,0.06140916921750354,0.3108637538262553,0.0,-0.03,-0.74,9.77,0.0,-0.1875,4.3125
21.976146936416626,0.0,0.0,-0.3,-0.04,-0.73,9.44,0,0,0,0,0,0,186.78575535023884,113.98806447492136,79.38506498824566,-1.125,-0.40625,0.1875,0.12390916921750354,0.12336375382625532,0.0,-0.03,-0.74,9.77,0.0,-0.1875,4.3125
